Wavelength,Intensity
350.47,67.0
351.07,63.0
351.67,68.0
352.27,67.0
352.87,75.0
353.47,68.0
354.07,72.0
354.66,70.0
355.26,63.0
355.86,65.0
356.46,63.0
357.06,63.0
357.66,63.0
358.26,71.0
358.86,66.0
359.46,67.0
360.05,64.0
360.65,70.0
361.25,71.0
361.85,69.0
362.45,74.0
363.05,69.0
363.65,70.0
364.25,73.0
364.84,73.0
365.44,74.0
366.04,70.0
366.64,67.0
367.24,67.0
367.84,69.0
368.44,63.0
369.04,63.0
369.63,67.0
370.23,74.0
370.83,67.0
371.43,63.0
372.03,66.0
372.63,64.0
373.23,65.0
373.83,67.0
374.42,73.0
375.02,77.0
375.62,93.0
376.22,98.0
376.82,86.0
377.42,74.0
378.02,68.0
378.62,66.0
379.21,70.0
379.81,67.0
380.41,74.0
381.01,73.0
381.61,70.0
382.21,69.0
382.81,72.0
383.4,71.0
384.0,76.0
384.6,75.0
385.2,80.0
385.8,104.0
386.4,176.0
387.0,385.0
387.59,650.0
388.19,644.0
388.79,470.0
389.39,189.0
389.99,100.0
390.59,77.0
391.19,74.0
391.78,73.0
392.38,74.0
392.98,70.0
393.58,70.0
394.18,77.0
394.78,74.0
395.38,87.0
395.97,128.0
396.57,155.0
397.17,149.0
397.77,115.0
398.37,80.0
398.97,68.0
399.56,71.0
400.16,73.0
400.76,70.0
401.36,68.0
401.96,66.0
402.56,70.0
403.15,70.0
403.75,69.0
404.35,77.0
404.95,71.0
405.55,68.0
406.15,68.0
406.75,71.0
407.34,76.0
407.94,78.0
408.54,88.0
409.14,89.0
409.74,93.0
410.34,100.0
410.93,120.0
411.53,157.0
412.13,307.0
412.73,839.0
413.33,1596.0
413.93,2485.0
414.52,2563.0
415.12,1968.0
415.72,1053.0
416.32,377.0
416.92,174.0
417.51,121.0
418.11,99.0
418.71,95.0
419.31,87.0
419.91,83.0
420.51,80.0
421.1,82.0
421.7,74.0
422.3,68.0
422.9,73.0
423.5,69.0
424.1,68.0
424.69,75.0
425.29,70.0
425.89,67.0
426.49,64.0
427.09,63.0
427.68,67.0
428.28,65.0
428.88,63.0
429.48,65.0
430.08,63.0
430.68,63.0
431.27,60.0
431.87,61.0
432.47,63.0
433.07,64.0
433.67,63.0
434.26,64.0
434.86,62.0
435.46,64.0
436.06,65.0
436.66,62.0
437.25,68.0
437.85,65.0
438.45,63.0
439.05,67.0
439.65,59.0
440.24,67.0
440.84,65.0
441.44,65.0
442.04,62.0
442.64,67.0
443.23,66.0
443.83,61.0
444.43,67.0
445.03,64.0
445.63,63.0
446.22,69.0
446.82,72.0
447.42,85.0
448.02,127.0
448.62,156.0
449.21,165.0
449.81,129.0
450.41,90.0
451.01,75.0
451.61,67.0
452.2,67.0
452.8,68.0
453.4,67.0
454.0,65.0
454.6,68.0
455.19,64.0
455.79,64.0
456.39,65.0
456.99,64.0
457.58,66.0
458.18,69.0
458.78,64.0
459.38,67.0
459.98,70.0
460.57,64.0
461.17,68.0
461.77,64.0
462.37,65.0
462.96,64.0
463.56,64.0
464.16,65.0
464.76,65.0
465.36,71.0
465.95,64.0
466.55,65.0
467.15,66.0
467.75,62.0
468.34,65.0
468.94,65.0
469.54,67.0
470.14,71.0
470.73,66.0
471.33,68.0
471.93,70.0
472.53,66.0
473.13,65.0
473.72,66.0
474.32,67.0
474.92,69.0
475.52,65.0
476.11,68.0
476.71,69.0
477.31,71.0
477.91,65.0
478.5,64.0
479.1,61.0
479.7,68.0
480.3,66.0
480.89,68.0
481.49,70.0
482.09,65.0
482.69,69.0
483.28,70.0
483.88,65.0
484.48,75.0
485.08,67.0
485.67,67.0
486.27,74.0
486.87,73.0
487.47,77.0
488.06,84.0
488.66,81.0
489.26,83.0
489.86,85.0
490.45,86.0
491.05,92.0
491.65,96.0
492.25,98.0
492.84,102.0
493.44,108.0
494.04,120.0
494.64,121.0
495.23,136.0
495.83,149.0
496.43,191.0
497.03,291.0
497.62,799.0
498.22,3133.0
498.82,4095.0
499.42,4095.0
500.01,4095.0
500.61,4095.0
501.21,4095.0
501.81,2829.0
502.4,1167.0
503.0,582.0
503.6,307.0
504.19,203.0
504.79,158.0
505.39,135.0
505.99,120.0
506.58,119.0
507.18,111.0
507.78,110.0
508.38,110.0
508.97,105.0
509.57,101.0
510.17,101.0
510.76,96.0
511.36,101.0
511.96,95.0
512.56,85.0
513.15,90.0
513.75,92.0
514.35,92.0
514.94,86.0
515.54,94.0
516.14,93.0
516.74,90.0
517.33,91.0
517.93,91.0
518.53,91.0
519.12,88.0
519.72,93.0
520.32,88.0
520.92,89.0
521.51,91.0
522.11,94.0
522.71,92.0
523.3,93.0
523.9,96.0
524.5,95.0
525.09,106.0
525.69,98.0
526.29,101.0
526.89,97.0
527.48,93.0
528.08,103.0
528.68,98.0
529.27,99.0
529.87,98.0
530.47,99.0
531.06,109.0
531.66,100.0
532.26,103.0
532.86,106.0
533.45,105.0
534.05,103.0
534.65,99.0
535.24,101.0
535.84,102.0
536.44,108.0
537.03,103.0
537.63,110.0
538.23,108.0
538.82,99.0
539.42,107.0
540.02,111.0
540.61,105.0
541.21,114.0
541.81,115.0
542.41,111.0
543.0,111.0
543.6,109.0
544.2,109.0
544.79,109.0
545.39,108.0
545.99,106.0
546.58,107.0
547.18,108.0
547.78,111.0
548.37,110.0
548.97,111.0
549.57,106.0
550.16,110.0
550.76,105.0
551.36,109.0
551.95,113.0
552.55,107.0
553.15,118.0
553.74,125.0
554.34,123.0
554.94,126.0
555.53,126.0
556.13,119.0
556.73,119.0
557.32,125.0
557.92,126.0
558.52,138.0
559.11,139.0
559.71,137.0
560.31,156.0
560.9,153.0
561.5,180.0
562.1,204.0
562.69,290.0
563.29,1269.0
563.89,4095.0
564.48,4095.0
565.08,4095.0
565.67,4095.0
566.27,4095.0
566.87,2935.0
567.46,713.0
568.06,320.0
568.66,365.0
569.25,610.0
569.85,661.0
570.45,743.0
571.04,519.0
571.64,343.0
572.24,211.0
572.83,161.0
573.43,145.0
574.03,135.0
574.62,124.0
575.22,119.0
575.81,116.0
576.41,115.0
577.01,111.0
577.6,107.0
578.2,103.0
578.8,106.0
579.39,107.0
579.99,107.0
580.58,103.0
581.18,97.0
581.78,96.0
582.37,102.0
582.97,101.0
583.57,109.0
584.16,103.0
584.76,97.0
585.35,101.0
585.95,105.0
586.55,104.0
587.14,95.0
587.74,103.0
588.34,96.0
588.93,95.0
589.53,97.0
590.12,95.0
590.72,103.0
591.32,103.0
591.91,104.0
592.51,95.0
593.11,89.0
593.7,101.0
594.3,93.0
594.89,87.0
595.49,90.0
596.09,97.0
596.68,99.0
597.28,98.0
597.87,87.0
598.47,93.0
599.07,94.0
599.66,97.0
600.26,93.0
600.85,96.0
601.45,93.0
602.05,101.0
602.64,98.0
603.24,103.0
603.83,97.0
604.43,109.0
605.03,110.0
605.62,118.0
606.22,130.0
606.81,143.0
607.41,126.0
608.01,135.0
608.6,145.0
609.2,146.0
609.79,142.0
610.39,149.0
610.98,161.0
611.58,172.0
612.18,192.0
612.77,232.0
613.37,299.0
613.96,421.0
614.56,592.0
615.16,2065.0
615.75,4095.0
616.35,4095.0
616.94,4095.0
617.54,4095.0
618.13,4095.0
618.73,4095.0
619.33,4095.0
619.92,968.0
620.52,451.0
621.11,307.0
621.71,248.0
622.3,195.0
622.9,176.0
623.5,159.0
624.09,142.0
624.69,138.0
625.28,131.0
625.88,129.0
626.47,116.0
627.07,111.0
627.67,108.0
628.26,106.0
628.86,105.0
629.45,95.0
630.05,99.0
630.64,97.0
631.24,88.0
631.83,84.0
632.43,88.0
633.03,82.0
633.62,91.0
634.22,86.0
634.81,84.0
635.41,84.0
636.0,83.0
636.6,81.0
637.19,78.0
637.79,76.0
638.39,78.0
638.98,81.0
639.58,78.0
640.17,79.0
640.77,83.0
641.36,77.0
641.96,78.0
642.55,79.0
643.15,77.0
643.74,81.0
644.34,81.0
644.93,78.0
645.53,79.0
646.13,78.0
646.72,78.0
647.32,79.0
647.91,81.0
648.51,78.0
649.1,77.0
649.7,79.0
650.29,75.0
650.89,76.0
651.48,74.0
652.08,77.0
652.67,79.0
653.27,80.0
653.86,78.0
654.46,75.0
655.05,76.0
655.65,73.0
656.25,76.0
656.84,75.0
657.44,78.0
658.03,78.0
658.63,74.0
659.22,76.0
659.82,75.0
660.41,71.0
661.01,70.0
661.6,76.0
662.2,78.0
662.79,74.0
663.39,74.0
663.98,77.0
664.58,77.0
665.17,71.0
665.77,75.0
666.36,70.0
666.96,74.0
667.55,77.0
668.15,74.0
668.74,70.0
669.34,72.0
669.93,72.0
670.53,74.0
671.12,74.0
671.72,77.0
672.31,74.0
672.91,73.0
673.5,69.0
674.1,74.0
674.69,71.0
675.29,71.0
675.88,73.0
676.48,76.0
677.07,70.0
677.67,72.0
678.26,72.0
678.86,77.0
679.45,75.0
680.05,74.0
680.64,76.0
681.23,70.0
681.83,74.0
682.42,76.0
683.02,78.0
683.61,76.0
684.21,74.0
684.8,71.0
685.4,73.0
685.99,76.0
686.59,73.0
687.18,75.0
687.78,73.0
688.37,75.0
688.97,72.0
689.56,78.0
690.16,70.0
690.75,77.0
691.34,74.0
691.94,68.0
692.53,74.0
693.13,76.0
693.72,73.0
694.32,73.0
694.91,75.0
695.51,73.0
696.1,71.0
696.7,75.0
697.29,74.0
697.89,74.0
698.48,79.0
699.07,76.0
699.67,72.0
700.26,73.0
700.86,71.0
701.45,73.0
702.05,71.0
702.64,73.0
703.24,74.0
703.83,74.0
704.42,77.0
705.02,74.0
705.61,77.0
706.21,79.0
706.8,68.0
707.4,77.0
707.99,68.0
708.58,72.0
709.18,81.0
709.77,96.0
710.37,121.0
710.96,130.0
711.56,123.0
712.15,107.0
712.75,95.0
713.34,82.0
713.93,78.0
714.53,72.0
715.12,67.0
715.72,74.0
716.31,70.0
716.9,69.0
717.5,69.0
718.09,74.0
718.69,72.0
719.28,67.0
719.88,71.0
720.47,70.0
721.06,69.0
721.66,71.0
722.25,76.0
722.85,70.0
723.44,70.0
724.03,67.0
724.63,73.0
725.22,77.0
725.82,73.0
726.41,70.0
727.0,68.0
727.6,66.0
728.19,67.0
728.79,70.0
729.38,74.0
729.97,75.0
730.57,71.0
731.16,69.0
731.76,67.0
732.35,68.0
732.94,68.0
733.54,65.0
734.13,70.0
734.73,71.0
735.32,67.0
735.91,73.0
736.51,69.0
737.1,68.0
737.7,71.0
738.29,68.0
738.88,69.0
739.48,67.0
740.07,67.0
740.66,70.0
741.26,73.0
741.85,66.0
742.45,75.0
743.04,68.0
743.63,69.0
744.23,71.0
744.82,68.0
745.41,71.0
746.01,74.0
746.6,75.0
747.2,77.0
747.79,74.0
748.38,66.0
748.98,67.0
749.57,62.0
750.16,65.0
750.76,66.0
751.35,69.0
751.95,70.0
752.54,71.0
753.13,70.0
753.73,74.0
754.32,69.0
754.91,70.0
755.51,70.0
756.1,67.0
756.69,71.0
757.29,72.0
757.88,72.0
758.47,68.0
759.07,62.0
759.66,71.0
760.25,67.0
760.85,70.0
761.44,76.0
762.03,75.0
762.63,71.0
763.22,71.0
763.82,73.0
764.41,71.0
765.0,69.0
765.6,73.0
766.19,73.0
766.78,74.0
767.38,73.0
767.97,72.0
768.56,69.0
769.16,68.0
769.75,70.0
770.34,70.0
770.94,67.0
771.53,70.0
772.12,75.0
772.71,74.0
773.31,70.0
773.9,71.0
774.49,69.0
775.09,69.0
775.68,68.0
776.27,73.0
776.87,68.0
777.46,75.0
778.05,74.0
778.65,73.0
779.24,69.0
779.83,71.0
780.43,71.0
781.02,71.0
781.61,76.0
782.21,74.0
782.8,73.0
783.39,76.0
783.98,73.0
784.58,76.0
785.17,77.0
785.76,76.0
786.36,72.0
786.95,78.0
787.54,81.0
788.14,83.0
788.73,82.0
789.32,84.0
789.91,84.0
790.51,87.0
791.1,88.0
791.69,85.0
792.29,96.0
792.88,104.0
793.47,97.0
794.06,117.0
794.66,131.0
795.25,143.0
795.84,143.0
796.44,147.0
797.03,142.0
797.62,147.0
798.21,158.0
798.81,168.0
799.4,187.0
799.99,205.0
800.58,240.0
801.18,308.0
801.77,457.0
802.36,1903.0
802.96,4095.0
803.55,4095.0
804.14,4095.0
804.73,4095.0
805.33,4095.0
805.92,4095.0
806.51,4095.0
807.1,4095.0
807.7,3910.0
808.29,924.0
808.88,483.0
809.47,339.0
810.07,250.0
810.66,197.0
811.25,166.0
811.84,147.0
812.44,141.0
813.03,131.0
813.62,125.0
814.21,123.0
814.81,114.0
815.4,107.0
815.99,101.0
816.58,98.0
817.18,94.0
817.77,90.0
818.36,95.0
818.95,91.0
819.55,83.0
820.14,84.0
820.73,85.0
821.32,77.0
821.92,78.0
822.51,77.0
823.1,78.0
823.69,80.0
824.28,77.0
824.88,75.0
825.47,77.0
826.06,76.0
826.65,74.0
827.25,69.0
827.84,71.0
828.43,73.0
829.02,68.0
829.61,75.0
830.21,70.0
830.8,73.0
831.39,67.0
831.98,73.0
832.58,65.0
833.17,71.0
833.76,71.0
834.35,66.0
834.94,66.0
835.54,70.0
836.13,69.0
836.72,67.0
837.31,70.0
837.9,73.0
838.5,70.0
839.09,67.0
839.68,71.0
840.27,69.0
840.86,69.0
841.46,71.0
842.05,67.0
842.64,70.0
843.23,70.0
843.82,72.0
844.42,73.0
845.01,77.0
845.6,80.0
846.19,68.0
846.78,72.0
847.37,72.0
847.97,72.0
848.56,79.0
849.15,82.0
849.74,79.0
850.33,78.0
850.93,73.0
851.52,78.0
852.11,81.0
852.7,86.0
853.29,86.0
853.88,87.0
854.48,96.0
855.07,110.0
855.66,153.0
856.25,933.0
856.84,2766.0
857.43,3794.0
858.03,4095.0
858.62,3440.0
859.21,2487.0
859.8,2291.0
860.39,3513.0
860.98,4092.0
861.58,4095.0
862.17,4095.0
862.76,2830.0
863.35,1990.0
863.94,1331.0
864.53,719.0
865.12,356.0
865.72,209.0
866.31,143.0
866.9,119.0
867.49,99.0
868.08,91.0
868.67,86.0
869.26,81.0
869.86,80.0
870.45,78.0
871.04,76.0
871.63,75.0
872.22,73.0
872.81,75.0
873.4,76.0
873.99,73.0
874.59,75.0
875.18,72.0
875.77,77.0
876.36,66.0
876.95,69.0
877.54,67.0
878.13,66.0
878.72,63.0
879.32,68.0
879.91,68.0
880.5,66.0
881.09,67.0
881.68,65.0
882.27,70.0
882.86,67.0
883.45,66.0
884.04,61.0
884.64,66.0
885.23,63.0
885.82,62.0
886.41,66.0
887.0,66.0
887.59,66.0
888.18,68.0
888.77,65.0
889.36,63.0
889.96,66.0
890.55,67.0
891.14,66.0
891.73,65.0
892.32,66.0
892.91,64.0
893.5,72.0
894.09,73.0
894.68,68.0
895.27,65.0
895.86,66.0
896.46,66.0
897.05,65.0
897.64,67.0
898.23,64.0
898.82,66.0
899.41,64.0
900.0,65.0
900.59,65.0
901.18,62.0
901.77,63.0
902.36,66.0
902.95,68.0
903.54,69.0
904.13,66.0
904.73,69.0
905.32,65.0
905.91,64.0
906.5,62.0
907.09,63.0
907.68,63.0
908.27,69.0
908.86,66.0
909.45,64.0
910.04,64.0
910.63,60.0
911.22,63.0
911.81,64.0
912.4,66.0
912.99,60.0
913.58,68.0
914.17,65.0
914.76,61.0
915.36,69.0
915.95,63.0
916.54,63.0
917.13,59.0
917.72,60.0
918.31,62.0
918.9,65.0
919.49,65.0
920.08,65.0
920.67,65.0
921.26,65.0
921.85,68.0
922.44,64.0
923.03,66.0
923.62,68.0
924.21,67.0
924.8,63.0
925.39,61.0
925.98,66.0
926.57,63.0
927.16,63.0
927.75,63.0
928.34,66.0
928.93,62.0
929.52,62.0
930.11,65.0
930.7,65.0
931.29,65.0
931.88,67.0
932.47,67.0
933.06,62.0
933.65,60.0
934.24,59.0
934.83,64.0
935.42,68.0
936.01,64.0
936.6,65.0
937.19,66.0
937.78,67.0
938.37,59.0
938.96,62.0
939.55,61.0
940.14,66.0
940.73,63.0
941.32,64.0
941.91,65.0
942.5,60.0
943.09,60.0
943.68,62.0
944.27,64.0
944.86,59.0
945.45,66.0
946.04,64.0
946.63,60.0
947.22,65.0
947.81,64.0
948.4,57.0
948.99,60.0
949.58,62.0
950.17,60.0
950.76,61.0
951.35,65.0
951.94,60.0
952.53,58.0
953.12,65.0
953.71,63.0
954.3,56.0
954.89,60.0
955.48,63.0
956.06,63.0
956.65,63.0
957.24,62.0
957.83,58.0
958.42,60.0
959.01,67.0
959.6,59.0
960.19,63.0
960.78,64.0
961.37,66.0
961.96,62.0
962.55,61.0
963.14,65.0
963.73,59.0
964.32,63.0
964.91,63.0
965.5,62.0
966.09,62.0
966.67,67.0
967.26,63.0
967.85,66.0
968.44,58.0
969.03,67.0
969.62,59.0
970.21,62.0
970.8,58.0
971.39,62.0
971.98,61.0
972.57,60.0
973.16,61.0
973.75,61.0
974.33,60.0
974.92,66.0
975.51,61.0
976.1,59.0
976.69,63.0
977.28,62.0
977.87,67.0
978.46,60.0
979.05,62.0
979.64,63.0
980.23,64.0
980.81,64.0
981.4,61.0
981.99,61.0
982.58,61.0
983.17,57.0
983.76,63.0
984.35,59.0
984.94,55.0
985.53,65.0
986.11,62.0
986.7,61.0
987.29,62.0
987.88,64.0
988.47,60.0
989.06,66.0
989.65,63.0
990.24,59.0
990.83,61.0
991.41,64.0
992.0,61.0
992.59,60.0
993.18,59.0
993.77,58.0
994.36,57.0
994.95,62.0
995.53,60.0
996.12,62.0
996.71,61.0
997.3,62.0
997.89,63.0
998.48,64.0
999.07,59.0
999.65,59.0
1000.24,59.0
1000.83,62.0
1001.42,59.0
1002.01,60.0
1002.6,64.0
1003.19,61.0
1003.77,64.0
1004.36,64.0
1004.95,59.0
1005.54,61.0
1006.13,59.0
1006.72,63.0
1007.31,62.0
1007.89,64.0
1008.48,61.0
1009.07,63.0
1009.66,58.0
1010.25,59.0
1010.84,61.0
1011.42,60.0
1012.01,63.0
1012.6,63.0
1013.19,63.0
1013.78,63.0
1014.36,57.0
1014.95,59.0
1015.54,59.0
1016.13,57.0
1016.72,59.0
1017.31,62.0
1017.89,66.0
1018.48,61.0
1019.07,63.0
1019.66,65.0
1020.25,67.0
1020.83,66.0
1021.42,63.0
1022.01,60.0
1022.6,65.0
1023.19,59.0
1023.77,61.0
1024.36,66.0
1024.95,65.0
1025.54,65.0
1026.13,62.0
1026.71,62.0
1027.3,62.0
1027.89,63.0
1028.48,57.0
1029.07,62.0
1029.65,62.0
1030.24,56.0
1030.83,62.0
1031.42,60.0
1032.0,64.0
1032.59,67.0
1033.18,62.0
1033.77,61.0
1034.36,62.0
1034.94,66.0
1035.53,62.0
1036.12,56.0
1036.71,60.0
1037.29,61.0
1037.88,60.0
1038.47,63.0
1039.06,61.0
1039.65,62.0
1040.23,59.0
1040.82,60.0
1041.41,64.0
1042.0,63.0
1042.58,59.0
1043.17,61.0
1043.76,64.0
1044.35,56.0
1044.93,62.0
1045.52,59.0
1046.11,59.0
1046.7,57.0
1047.28,59.0
1047.87,61.0
1048.46,62.0
1049.05,59.0
1049.63,60.0
1050.22,61.0
1050.81,61.0
1051.39,65.0
1051.98,62.0
1052.57,62.0
1053.16,60.0
1053.74,63.0
1054.33,62.0
1054.92,62.0
1055.51,59.0
1056.09,63.0
1056.68,65.0
1057.27,65.0
1057.85,64.0
1058.44,67.0
1059.03,68.0
1059.62,71.0
1060.2,70.0
1060.79,73.0
1061.38,72.0
1061.96,71.0
1062.55,67.0
1063.14,66.0
1063.73,65.0
1064.31,63.0
1064.9,64.0
1065.49,63.0
1066.07,63.0
1066.66,68.0
1067.25,63.0
1067.83,63.0
1068.42,66.0
1069.01,118.0
1069.59,241.0
1070.18,329.0
1070.77,382.0
1071.36,338.0
1071.94,273.0
1072.53,232.0
1073.12,188.0
1073.7,144.0
1074.29,115.0
1074.88,86.0
1075.46,71.0
1076.05,69.0
1076.64,65.0
1077.22,64.0
1077.81,64.0
1078.4,59.0
1078.98,61.0
1079.57,56.0
1080.16,65.0
1080.74,63.0
1081.33,61.0
1081.92,65.0
1082.5,61.0
1083.09,67.0
1083.68,59.0
1084.26,63.0
1084.85,63.0
1085.44,62.0
1086.02,62.0
1086.61,60.0
1087.19,65.0
1087.78,81.0
1088.37,99.0
1088.95,120.0
1089.54,126.0
1090.13,119.0
1090.71,104.0
1091.3,95.0
1091.89,84.0
1092.47,77.0
1093.06,68.0
1093.64,69.0
1094.23,61.0
1094.82,62.0
1095.4,58.0
1095.99,62.0
1096.58,61.0
1097.16,56.0
1097.75,59.0
1098.33,56.0
1098.92,61.0
1099.51,58.0
1100.09,59.0
1100.68,58.0
1101.27,55.0
1101.85,63.0
1102.44,60.0
1103.02,63.0
1103.61,68.0
1104.2,65.0
1104.78,70.0
1105.37,61.0
1105.95,61.0
1106.54,61.0
1107.13,66.0
1107.71,56.0
1108.3,60.0
1108.88,59.0
1109.47,61.0
1110.05,64.0
1110.64,60.0
1111.23,62.0
1111.81,57.0
1112.4,56.0
1112.98,54.0
1113.57,58.0
1114.16,57.0
1114.74,57.0
1115.33,64.0
1115.91,59.0
1116.5,63.0
1117.08,62.0
1117.67,57.0
1118.26,62.0
1118.84,63.0
1119.43,61.0
1120.01,63.0
1120.6,60.0
1121.18,59.0
1121.77,59.0
1122.35,60.0
1122.94,58.0
1123.53,64.0
1124.11,62.0
1124.7,63.0
1125.28,71.0
1125.87,93.0
1126.45,111.0
1127.04,127.0
1127.62,120.0
1128.21,104.0
1128.79,95.0
1129.38,84.0
1129.97,78.0
1130.55,71.0
1131.14,62.0
1131.72,62.0
1132.31,64.0
1132.89,63.0
1133.48,60.0
1134.06,61.0
1134.65,58.0
1135.23,58.0
1135.82,59.0
1136.4,61.0
1136.99,64.0
1137.57,58.0
1138.16,63.0
1138.74,61.0
1139.33,62.0
1139.91,59.0
1140.5,64.0
1141.08,63.0
1141.67,60.0
1142.25,60.0
1142.84,63.0
1143.42,62.0
1144.01,61.0
1144.59,62.0
1145.18,61.0
1145.76,82.0
1146.35,115.0
1146.93,143.0
1147.52,159.0
1148.1,157.0
1148.69,133.0
1149.27,109.0
1149.86,99.0
1150.44,83.0
1151.03,72.0
1151.61,75.0
1152.2,66.0
1152.78,66.0
1153.37,63.0
1153.95,63.0
1154.54,66.0
1155.12,60.0
1155.71,65.0
1156.29,61.0
1156.88,61.0
1157.46,58.0
1158.04,61.0
1158.63,56.0
1159.21,59.0
1159.8,60.0
1160.38,57.0
1160.97,67.0
1161.55,59.0
1162.14,59.0
1162.72,60.0
1163.31,57.0
1163.89,62.0
1164.47,62.0
1165.06,59.0
1165.64,62.0
1166.23,65.0
1166.81,56.0
1167.4,63.0
1167.98,96.0
1168.56,178.0
1169.15,245.0
1169.73,293.0
1170.32,297.0
1170.9,273.0
1171.49,239.0
1172.07,211.0
1172.65,180.0
1173.24,142.0
1173.82,121.0
1174.41,101.0
1174.99,90.0
1175.58,77.0
1176.16,80.0
1176.74,71.0
1177.33,67.0
1177.91,65.0
1178.5,60.0
1179.08,60.0
1179.66,58.0
1180.25,56.0
1180.83,59.0
1181.42,64.0
1182.0,64.0
1182.58,61.0
1183.17,58.0
1183.75,64.0
1184.34,60.0
1184.92,65.0
1185.5,66.0
1186.09,63.0
1186.67,66.0
1187.25,63.0
1187.84,71.0
1188.42,97.0
1189.01,121.0
1189.59,127.0
1190.17,135.0
1190.76,120.0
1191.34,104.0
1191.92,100.0
1192.51,169.0
1193.09,352.0
1193.68,490.0
1194.26,549.0
1194.84,492.0
1195.43,333.0
1196.01,233.0
1196.59,186.0
1197.18,164.0
1197.76,153.0
1198.34,129.0
1198.93,105.0
1199.51,85.0
1200.09,73.0
1200.68,66.0
1201.26,69.0
1201.84,65.0
1202.43,58.0
1203.01,66.0
1203.59,62.0
1204.18,62.0
1204.76,56.0
1205.34,63.0
1205.93,64.0
1206.51,60.0
1207.09,63.0
1207.68,64.0
1208.26,67.0
1208.84,75.0
1209.43,152.0
1210.01,249.0
1210.59,311.0
1211.18,322.0
1211.76,236.0
1212.34,177.0
1212.93,146.0
1213.51,125.0
1214.09,117.0
1214.68,106.0
1215.26,95.0
1215.84,85.0
1216.42,68.0
1217.01,64.0
1217.59,63.0
1218.17,64.0
1218.76,65.0
1219.34,61.0
1219.92,63.0
1220.51,62.0
1221.09,58.0
1221.67,55.0
1222.25,64.0
1222.84,66.0
1223.42,61.0
1224.0,60.0
1224.59,60.0
1225.17,60.0
1225.75,60.0
1226.33,56.0
1226.92,59.0
1227.5,55.0
1228.08,58.0
1228.66,61.0
1229.25,58.0
1229.83,62.0
1230.41,66.0
1230.99,59.0
1231.58,58.0
1232.16,59.0
1232.74,58.0
1233.32,64.0
1233.91,57.0
1234.49,60.0
1235.07,61.0
1235.65,54.0
1236.24,59.0
1236.82,59.0
1237.4,63.0
1237.98,59.0
1238.57,58.0
1239.15,59.0
1239.73,56.0
1240.31,57.0
1240.9,66.0
1241.48,56.0
1242.06,62.0
1242.64,62.0
1243.22,56.0
1243.81,57.0
1244.39,60.0
1244.97,60.0
1245.55,64.0
1246.14,63.0
1246.72,56.0
1247.3,60.0
1247.88,61.0
1248.46,62.0
1249.05,60.0
1249.63,63.0
1250.21,61.0
1250.79,59.0
1251.37,77.0
1251.96,96.0
1252.54,110.0
1253.12,118.0
1253.7,110.0
1254.28,95.0
1254.87,85.0
1255.45,75.0
1256.03,80.0
1256.61,72.0
1257.19,71.0
1257.78,73.0
1258.36,69.0
1258.94,61.0
1259.52,63.0
1260.1,61.0
1260.68,65.0
1261.27,65.0
1261.85,61.0
1262.43,76.0
1263.01,86.0
1263.59,95.0
1264.17,119.0
1264.76,123.0
1265.34,124.0
1265.92,124.0
1266.5,110.0
1267.08,100.0
1267.66,93.0
1268.25,90.0
1268.83,85.0
1269.41,74.0
1269.99,75.0
1270.57,71.0
1271.15,66.0
1271.73,61.0
1272.32,62.0
1272.9,60.0
1273.48,61.0
1274.06,65.0
1274.64,59.0
1275.22,59.0
1275.8,61.0
1276.38,64.0
1276.97,63.0
1277.55,59.0
1278.13,58.0
1278.71,58.0
1279.29,59.0
1279.87,60.0
1280.45,63.0
1281.03,73.0
1281.62,95.0
1282.2,107.0
1282.78,125.0
1283.36,146.0
1283.94,175.0
1284.52,203.0
1285.1,203.0
1285.68,181.0
1286.26,152.0
1286.84,130.0
1287.43,127.0
1288.01,111.0
1288.59,99.0
1289.17,92.0
1289.75,90.0
1290.33,87.0
1290.91,74.0
1291.49,66.0
1292.07,66.0
1292.65,60.0
1293.23,59.0
1293.81,62.0
1294.4,64.0
1294.98,57.0
1295.56,62.0
1296.14,59.0
1296.72,59.0
1297.3,59.0
1297.88,59.0
1298.46,61.0
1299.04,59.0
1299.62,59.0
1300.2,60.0
1300.78,59.0
1301.36,60.0
1301.94,60.0
1302.52,57.0
1303.1,62.0
1303.68,58.0
1304.27,57.0
1304.85,60.0
1305.43,60.0
1306.01,64.0
1306.59,62.0
1307.17,57.0
1307.75,60.0
1308.33,58.0
1308.91,56.0
1309.49,59.0
1310.07,62.0
1310.65,60.0
1311.23,61.0
1311.81,80.0
1312.39,98.0
1312.97,119.0
1313.55,133.0
1314.13,124.0
1314.71,115.0
1315.29,108.0
1315.87,101.0
1316.45,94.0
1317.03,90.0
1317.61,86.0
1318.19,85.0
1318.77,84.0
1319.35,79.0
1319.93,73.0
1320.51,66.0
1321.09,64.0
1321.67,61.0
1322.25,59.0
1322.83,61.0
1323.41,62.0
1323.99,59.0
1324.57,59.0
1325.15,62.0
1325.73,59.0
1326.31,62.0
1326.89,60.0
1327.47,57.0
1328.05,59.0
1328.63,61.0
1329.21,59.0
1329.79,58.0
1330.37,60.0
1330.95,59.0
1331.53,58.0
1332.11,60.0
1332.68,62.0
1333.26,55.0
1333.84,56.0
1334.42,62.0
1335.0,61.0
1335.58,60.0
1336.16,59.0
1336.74,62.0
1337.32,63.0
1337.9,64.0
1338.48,59.0
1339.06,61.0
1339.64,68.0
1340.22,67.0
1340.8,84.0
1341.38,87.0
1341.96,91.0
1342.53,93.0
1343.11,89.0
1343.69,99.0
1344.27,104.0
1344.85,110.0
1345.43,99.0
1346.01,101.0
1346.59,101.0
1347.17,95.0
1347.75,88.0
1348.33,80.0
1348.91,79.0
1349.48,80.0
1350.06,76.0
1350.64,67.0
1351.22,65.0
1351.8,62.0
1352.38,59.0
1352.96,59.0
1353.54,65.0
1354.12,59.0
1354.69,63.0
1355.27,61.0
1355.85,63.0
1356.43,61.0
1357.01,60.0
1357.59,58.0
1358.17,63.0
1358.75,64.0
1359.32,60.0
1359.9,59.0
1360.48,63.0
1361.06,56.0
1361.64,54.0
1362.22,64.0
1362.8,70.0
1363.38,69.0
1363.95,68.0
1364.53,63.0
1365.11,73.0
1365.69,69.0
1366.27,69.0
1366.85,67.0
1367.43,67.0
1368.0,67.0
1368.58,64.0
1369.16,66.0
1369.74,64.0
1370.32,63.0
1370.9,60.0
1371.47,62.0
1372.05,64.0
1372.63,57.0
1373.21,56.0
1373.79,57.0
1374.37,60.0
1374.94,61.0
1375.52,63.0
1376.1,61.0
1376.68,55.0
1377.26,62.0
1377.83,63.0
1378.41,61.0
1378.99,59.0
1379.57,57.0
1380.15,61.0
1380.72,61.0
1381.3,57.0
1381.88,57.0
1382.46,56.0
1383.04,58.0
1383.61,59.0
1384.19,59.0
1384.77,58.0
1385.35,57.0
1385.93,50.0
1386.5,60.0
1387.08,53.0
1387.66,57.0
1388.24,57.0
1388.82,59.0
1389.39,58.0
1389.97,61.0
1390.55,59.0
1391.13,59.0
1391.7,60.0
1392.28,58.0
1392.86,59.0
1393.44,59.0
1394.01,55.0
1394.59,59.0
1395.17,62.0
1395.75,59.0
1396.32,58.0
1396.9,63.0
1397.48,61.0
1398.06,60.0
1398.63,59.0
1399.21,55.0
1399.79,61.0
1400.37,60.0
1400.94,57.0
1401.52,65.0
1402.1,61.0
1402.68,60.0
1403.25,58.0
1403.83,62.0
1404.41,58.0
1404.99,57.0
1405.56,61.0
1406.14,61.0
1406.72,64.0
1407.29,62.0
1407.87,55.0
1408.45,56.0
1409.03,59.0
1409.6,59.0
1410.18,62.0
