Wavelength,Intensity
350.25,73.0
350.61,69.0
350.97,71.0
351.34,67.0
351.7,73.0
352.07,70.0
352.43,71.0
352.79,75.0
353.16,73.0
353.52,71.0
353.88,72.0
354.25,72.0
354.61,75.0
354.97,76.0
355.34,76.0
355.7,68.0
356.06,71.0
356.43,67.0
356.79,72.0
357.15,76.0
357.52,72.0
357.88,71.0
358.24,68.0
358.6,75.0
358.97,77.0
359.33,76.0
359.69,74.0
360.06,68.0
360.42,71.0
360.78,76.0
361.14,73.0
361.51,79.0
361.87,74.0
362.23,74.0
362.6,78.0
362.96,79.0
363.32,78.0
363.68,73.0
364.05,75.0
364.41,74.0
364.77,80.0
365.13,75.0
365.5,76.0
365.86,75.0
366.22,80.0
366.58,74.0
366.95,77.0
367.31,80.0
367.67,75.0
368.03,82.0
368.39,80.0
368.76,81.0
369.12,80.0
369.48,80.0
369.84,77.0
370.2,76.0
370.57,86.0
370.93,82.0
371.29,86.0
371.65,82.0
372.01,78.0
372.38,81.0
372.74,79.0
373.1,79.0
373.46,85.0
373.82,82.0
374.18,84.0
374.55,84.0
374.91,85.0
375.27,91.0
375.63,85.0
375.99,86.0
376.35,88.0
376.71,85.0
377.08,89.0
377.44,90.0
377.8,90.0
378.16,90.0
378.52,88.0
378.88,91.0
379.24,88.0
379.6,94.0
379.97,94.0
380.33,92.0
380.69,93.0
381.05,95.0
381.41,100.0
381.77,97.0
382.13,94.0
382.49,100.0
382.85,90.0
383.21,100.0
383.57,94.0
383.94,106.0
384.3,100.0
384.66,102.0
385.02,103.0
385.38,102.0
385.74,101.0
386.1,108.0
386.46,104.0
386.82,110.0
387.18,104.0
387.54,105.0
387.9,114.0
388.26,103.0
388.62,111.0
388.98,107.0
389.34,105.0
389.7,111.0
390.06,107.0
390.42,113.0
390.78,116.0
391.14,118.0
391.5,114.0
391.86,116.0
392.22,122.0
392.58,118.0
392.94,113.0
393.3,118.0
393.66,120.0
394.02,120.0
394.38,117.0
394.74,121.0
395.1,122.0
395.46,130.0
395.82,123.0
396.18,126.0
396.54,129.0
396.9,132.0
397.26,125.0
397.62,135.0
397.98,142.0
398.34,126.0
398.7,125.0
399.05,130.0
399.41,131.0
399.77,131.0
400.13,136.0
400.49,135.0
400.85,144.0
401.21,140.0
401.57,140.0
401.93,141.0
402.29,140.0
402.65,148.0
403.0,147.0
403.36,150.0
403.72,151.0
404.08,155.0
404.44,148.0
404.8,150.0
405.16,163.0
405.52,165.0
405.87,162.0
406.23,167.0
406.59,152.0
406.95,157.0
407.31,166.0
407.67,166.0
408.03,173.0
408.38,170.0
408.74,178.0
409.1,179.0
409.46,162.0
409.82,170.0
410.17,175.0
410.53,170.0
410.89,176.0
411.25,164.0
411.61,168.0
411.97,186.0
412.32,182.0
412.68,187.0
413.04,182.0
413.4,161.0
413.75,187.0
414.11,188.0
414.47,189.0
414.83,196.0
415.19,187.0
415.54,186.0
415.9,195.0
416.26,189.0
416.62,203.0
416.97,181.0
417.33,193.0
417.69,204.0
418.05,197.0
418.4,196.0
418.76,208.0
419.12,216.0
419.48,206.0
419.83,220.0
420.19,202.0
420.55,203.0
420.9,221.0
421.26,209.0
421.62,211.0
421.98,218.0
422.33,229.0
422.69,226.0
423.05,235.0
423.4,220.0
423.76,211.0
424.12,229.0
424.47,232.0
424.83,231.0
425.19,232.0
425.54,228.0
425.9,234.0
426.26,243.0
426.61,253.0
426.97,222.0
427.33,239.0
427.68,250.0
428.04,256.0
428.4,279.0
428.75,269.0
429.11,252.0
429.47,284.0
429.82,275.0
430.18,276.0
430.53,265.0
430.89,265.0
431.25,273.0
431.6,285.0
431.96,279.0
432.31,286.0
432.67,293.0
433.03,297.0
433.38,291.0
433.74,309.0
434.09,288.0
434.45,273.0
434.81,284.0
435.16,303.0
435.52,289.0
435.87,270.0
436.23,284.0
436.58,287.0
436.94,308.0
437.3,309.0
437.65,318.0
438.01,310.0
438.36,314.0
438.72,320.0
439.07,314.0
439.43,313.0
439.78,331.0
440.14,350.0
440.49,321.0
440.85,326.0
441.2,341.0
441.56,323.0
441.91,356.0
442.27,336.0
442.62,332.0
442.98,352.0
443.33,341.0
443.69,348.0
444.04,341.0
444.4,321.0
444.75,370.0
445.11,363.0
445.46,371.0
445.82,365.0
446.17,356.0
446.53,374.0
446.88,404.0
447.23,356.0
447.59,354.0
447.94,354.0
448.3,374.0
448.65,363.0
449.01,389.0
449.36,399.0
449.72,426.0
450.07,429.0
450.42,424.0
450.78,399.0
451.13,414.0
451.49,400.0
451.84,393.0
452.19,401.0
452.55,411.0
452.9,424.0
453.26,451.0
453.61,467.0
453.96,395.0
454.32,446.0
454.67,453.0
455.02,419.0
455.38,439.0
455.73,429.0
456.09,473.0
456.44,480.0
456.79,472.0
457.15,463.0
457.5,443.0
457.85,467.0
458.21,446.0
458.56,490.0
458.91,472.0
459.27,455.0
459.62,450.0
459.97,462.0
460.32,480.0
460.68,486.0
461.03,482.0
461.38,495.0
461.74,547.0
462.09,523.0
462.44,505.0
462.8,502.0
463.15,494.0
463.5,509.0
463.85,551.0
464.21,522.0
464.56,551.0
464.91,515.0
465.26,528.0
465.62,527.0
465.97,555.0
466.32,562.0
466.67,573.0
467.03,579.0
467.38,575.0
467.73,589.0
468.08,603.0
468.44,600.0
468.79,613.0
469.14,586.0
469.49,606.0
469.85,631.0
470.2,685.0
470.55,684.0
470.9,673.0
471.25,665.0
471.61,674.0
471.96,682.0
472.31,703.0
472.66,694.0
473.01,725.0
473.36,748.0
473.72,728.0
474.07,765.0
474.42,771.0
474.77,772.0
475.12,790.0
475.47,822.0
475.83,817.0
476.18,822.0
476.53,812.0
476.88,851.0
477.23,856.0
477.58,854.0
477.93,883.0
478.28,867.0
478.64,901.0
478.99,923.0
479.34,934.0
479.69,939.0
480.04,954.0
480.39,958.0
480.74,953.0
481.09,1014.0
481.44,1000.0
481.79,1000.0
482.15,1015.0
482.5,1047.0
482.85,1063.0
483.2,1070.0
483.55,1083.0
483.9,1102.0
484.25,1074.0
484.6,1083.0
484.95,1123.0
485.3,1154.0
485.65,1131.0
486.0,1173.0
486.35,1131.0
486.7,1166.0
487.05,1217.0
487.4,1189.0
487.75,1200.0
488.1,1222.0
488.45,1196.0
488.8,1215.0
489.15,1255.0
489.5,1265.0
489.85,1271.0
490.2,1255.0
490.55,1279.0
490.9,1293.0
491.25,1297.0
491.6,1293.0
491.95,1318.0
492.3,1328.0
492.65,1323.0
493.0,1308.0
493.35,1324.0
493.7,1358.0
494.05,1349.0
494.4,1383.0
494.75,1366.0
495.1,1371.0
495.45,1394.0
495.8,1395.0
496.15,1417.0
496.5,1426.0
496.84,1418.0
497.19,1405.0
497.54,1431.0
497.89,1431.0
498.24,1416.0
498.59,1465.0
498.94,1442.0
499.29,1466.0
499.64,1473.0
499.99,1474.0
500.33,1487.0
500.68,1490.0
501.03,1505.0
501.38,1508.0
501.73,1525.0
502.08,1522.0
502.43,1536.0
502.77,1544.0
503.12,1540.0
503.47,1554.0
503.82,1562.0
504.17,1585.0
504.52,1578.0
504.86,1577.0
505.21,1603.0
505.56,1609.0
505.91,1631.0
506.26,1621.0
506.61,1647.0
506.95,1634.0
507.3,1641.0
507.65,1671.0
508.0,1667.0
508.35,1683.0
508.69,1682.0
509.04,1713.0
509.39,1687.0
509.74,1722.0
510.08,1730.0
510.43,1757.0
510.78,1747.0
511.13,1749.0
511.47,1757.0
511.82,1767.0
512.17,1748.0
512.52,1797.0
512.86,1799.0
513.21,1818.0
513.56,1807.0
513.91,1831.0
514.25,1832.0
514.6,1860.0
514.95,1865.0
515.3,1855.0
515.64,1859.0
515.99,1899.0
516.34,1887.0
516.68,1909.0
517.03,1904.0
517.38,1928.0
517.72,1949.0
518.07,1941.0
518.42,1940.0
518.76,1959.0
519.11,1965.0
519.46,2001.0
519.8,1972.0
520.15,1979.0
520.5,2005.0
520.84,2035.0
521.19,2035.0
521.54,2036.0
521.88,2025.0
522.23,2070.0
522.58,2073.0
522.92,2061.0
523.27,2087.0
523.61,2062.0
523.96,2075.0
524.31,2121.0
524.65,2116.0
525.0,2111.0
525.34,2099.0
525.69,2115.0
526.04,2146.0
526.38,2140.0
526.73,2149.0
527.07,2172.0
527.42,2173.0
527.76,2186.0
528.11,2191.0
528.46,2173.0
528.8,2181.0
529.15,2182.0
529.49,2179.0
529.84,2179.0
530.18,2190.0
530.53,2229.0
530.87,2224.0
531.22,2229.0
531.56,2193.0
531.91,2221.0
532.25,2234.0
532.6,2245.0
532.94,2233.0
533.29,2234.0
533.63,2242.0
533.98,2227.0
534.32,2251.0
534.67,2285.0
535.01,2270.0
535.36,2276.0
535.7,2293.0
536.05,2311.0
536.39,2305.0
536.74,2288.0
537.08,2266.0
537.43,2284.0
537.77,2300.0
538.12,2326.0
538.46,2334.0
538.8,2333.0
539.15,2307.0
539.49,2317.0
539.84,2336.0
540.18,2343.0
540.53,2345.0
540.87,2352.0
541.21,2361.0
541.56,2358.0
541.9,2388.0
542.25,2353.0
542.59,2341.0
542.93,2384.0
543.28,2385.0
543.62,2371.0
543.97,2382.0
544.31,2410.0
544.65,2420.0
545.0,2431.0
545.34,2423.0
545.68,2431.0
546.03,2416.0
546.37,2441.0
546.71,2468.0
547.06,2451.0
547.4,2470.0
547.74,2501.0
548.09,2487.0
548.43,2490.0
548.77,2515.0
549.12,2477.0
549.46,2489.0
549.8,2509.0
550.15,2521.0
550.49,2504.0
550.83,2539.0
551.17,2512.0
551.52,2525.0
551.86,2540.0
552.2,2574.0
552.55,2568.0
552.89,2585.0
553.23,2585.0
553.57,2601.0
553.92,2590.0
554.26,2633.0
554.6,2595.0
554.94,2621.0
555.29,2635.0
555.63,2661.0
555.97,2649.0
556.31,2649.0
556.66,2657.0
557.0,2650.0
557.34,2663.0
557.68,2681.0
558.02,2686.0
558.37,2679.0
558.71,2705.0
559.05,2710.0
559.39,2713.0
559.73,2730.0
560.08,2735.0
560.42,2723.0
560.76,2701.0
561.1,2724.0
561.44,2717.0
561.78,2736.0
562.13,2783.0
562.47,2755.0
562.81,2767.0
563.15,2782.0
563.49,2775.0
563.83,2807.0
564.17,2812.0
564.52,2796.0
564.86,2805.0
565.2,2800.0
565.54,2805.0
565.88,2831.0
566.22,2837.0
566.56,2822.0
566.9,2838.0
567.24,2840.0
567.59,2830.0
567.93,2824.0
568.27,2867.0
568.61,2869.0
568.95,2842.0
569.29,2840.0
569.63,2884.0
569.97,2879.0
570.31,2849.0
570.65,2874.0
570.99,2881.0
571.33,2891.0
571.67,2875.0
572.01,2888.0
572.35,2876.0
572.69,2891.0
573.03,2906.0
573.37,2888.0
573.71,2892.0
574.05,2863.0
574.39,2876.0
574.73,2892.0
575.07,2881.0
575.41,2918.0
575.75,2908.0
576.09,2937.0
576.43,2896.0
576.77,2916.0
577.11,2906.0
577.45,2909.0
577.79,2917.0
578.13,2933.0
578.47,2918.0
578.81,2890.0
579.15,2907.0
579.49,2958.0
579.83,2935.0
580.17,2950.0
580.51,2915.0
580.85,2937.0
581.19,2948.0
581.53,2931.0
581.87,2939.0
582.2,2916.0
582.54,2930.0
582.88,2968.0
583.22,2936.0
583.56,2930.0
583.9,2961.0
584.24,2969.0
584.58,2937.0
584.92,2959.0
585.25,2979.0
585.59,2975.0
585.93,2978.0
586.27,2997.0
586.61,2955.0
586.95,2976.0
587.29,2969.0
587.62,2954.0
587.96,2982.0
588.3,2957.0
588.64,2995.0
588.98,2988.0
589.31,3004.0
589.65,2999.0
589.99,2939.0
590.33,2994.0
590.67,2992.0
591.01,2977.0
591.34,3016.0
591.68,3003.0
592.02,3003.0
592.36,3003.0
592.69,3002.0
593.03,3007.0
593.37,3002.0
593.71,3026.0
594.04,2997.0
594.38,3028.0
594.72,3054.0
595.06,3025.0
595.39,3021.0
595.73,3022.0
596.07,3068.0
596.41,3027.0
596.74,3027.0
597.08,3063.0
597.42,3073.0
597.76,3053.0
598.09,3053.0
598.43,3056.0
598.77,3069.0
599.1,3091.0
599.44,3032.0
599.78,3052.0
600.11,3062.0
600.45,3087.0
600.79,3076.0
601.12,3062.0
601.46,3096.0
601.8,3092.0
602.13,3069.0
602.47,3117.0
602.81,3082.0
603.14,3079.0
603.48,3110.0
603.82,3100.0
604.15,3114.0
604.49,3109.0
604.82,3094.0
605.16,3111.0
605.5,3091.0
605.83,3125.0
606.17,3124.0
606.5,3121.0
606.84,3131.0
607.18,3146.0
607.51,3122.0
607.85,3114.0
608.18,3116.0
608.52,3160.0
608.86,3157.0
609.19,3145.0
609.53,3124.0
609.86,3192.0
610.2,3150.0
610.53,3124.0
610.87,3141.0
611.2,3181.0
611.54,3126.0
611.87,3161.0
612.21,3154.0
612.54,3142.0
612.88,3141.0
613.21,3169.0
613.55,3189.0
613.88,3139.0
614.22,3157.0
614.55,3168.0
614.89,3138.0
615.22,3156.0
615.56,3131.0
615.89,3175.0
616.23,3169.0
616.56,3119.0
616.9,3163.0
617.23,3137.0
617.57,3161.0
617.9,3133.0
618.24,3178.0
618.57,3133.0
618.9,3157.0
619.24,3169.0
619.57,3160.0
619.91,3189.0
620.24,3126.0
620.58,3147.0
620.91,3141.0
621.24,3156.0
621.58,3169.0
621.91,3149.0
622.25,3141.0
622.58,3158.0
622.91,3160.0
623.25,3113.0
623.58,3138.0
623.91,3131.0
624.25,3141.0
624.58,3144.0
624.92,3154.0
625.25,3128.0
625.58,3118.0
625.92,3147.0
626.25,3124.0
626.58,3152.0
626.92,3126.0
627.25,3149.0
627.58,3152.0
627.91,3137.0
628.25,3114.0
628.58,3109.0
628.91,3110.0
629.25,3119.0
629.58,3086.0
629.91,3136.0
630.25,3103.0
630.58,3099.0
630.91,3142.0
631.24,3123.0
631.58,3145.0
631.91,3141.0
632.24,3093.0
632.57,3098.0
632.91,3093.0
633.24,3128.0
633.57,3113.0
633.9,3084.0
634.24,3127.0
634.57,3099.0
634.9,3108.0
635.23,3051.0
635.56,3092.0
635.9,3082.0
636.23,3127.0
636.56,3090.0
636.89,3083.0
637.22,3099.0
637.56,3119.0
637.89,3063.0
638.22,3084.0
638.55,3087.0
638.88,3089.0
639.21,3078.0
639.55,3037.0
639.88,3050.0
640.21,3081.0
640.54,3056.0
640.87,3075.0
641.2,3065.0
641.53,3037.0
641.87,3057.0
642.2,3081.0
642.53,3035.0
642.86,3036.0
643.19,3048.0
643.52,3059.0
643.85,3027.0
644.18,3037.0
644.51,3049.0
644.84,3034.0
645.18,3012.0
645.51,3028.0
645.84,3035.0
646.17,3046.0
646.5,3044.0
646.83,3047.0
647.16,3010.0
647.49,3022.0
647.82,3033.0
648.15,3019.0
648.48,3025.0
648.81,3023.0
649.14,2994.0
649.47,3029.0
649.8,3016.0
650.13,3005.0
650.46,3006.0
650.79,2992.0
651.12,3014.0
651.45,3016.0
651.78,2983.0
652.11,3017.0
652.44,3008.0
652.77,3019.0
653.1,3007.0
653.43,3018.0
653.76,2971.0
654.09,2980.0
654.42,3004.0
654.75,2991.0
655.08,2998.0
655.41,2985.0
655.74,2945.0
656.07,2995.0
656.39,2994.0
656.72,2983.0
657.05,2961.0
657.38,2997.0
657.71,2974.0
658.04,2977.0
658.37,2964.0
658.7,2976.0
659.03,2997.0
659.36,2985.0
659.68,2983.0
660.01,2975.0
660.34,2990.0
660.67,2957.0
661.0,2958.0
661.33,2959.0
661.66,2950.0
661.98,2977.0
662.31,2965.0
662.64,2943.0
662.97,2955.0
663.3,2967.0
663.63,2944.0
663.95,2935.0
664.28,2937.0
664.61,2913.0
664.94,2933.0
665.27,2963.0
665.59,2937.0
665.92,2934.0
666.25,2904.0
666.58,2916.0
666.91,2941.0
667.23,2916.0
667.56,2924.0
667.89,2887.0
668.22,2896.0
668.54,2935.0
668.87,2937.0
669.2,2884.0
669.53,2910.0
669.85,2915.0
670.18,2906.0
670.51,2883.0
670.83,2873.0
671.16,2883.0
671.49,2906.0
671.82,2871.0
672.14,2853.0
672.47,2872.0
672.8,2885.0
673.12,2870.0
673.45,2872.0
673.78,2841.0
674.1,2852.0
674.43,2863.0
674.76,2821.0
675.08,2866.0
675.41,2808.0
675.74,2818.0
676.06,2803.0
676.39,2822.0
676.72,2839.0
677.04,2806.0
677.37,2829.0
677.69,2802.0
678.02,2793.0
678.35,2784.0
678.67,2750.0
679.0,2793.0
679.32,2773.0
679.65,2781.0
679.98,2783.0
680.3,2768.0
680.63,2719.0
680.95,2755.0
681.28,2759.0
681.6,2735.0
681.93,2719.0
682.26,2729.0
682.58,2740.0
682.91,2746.0
683.23,2693.0
683.56,2680.0
683.88,2698.0
684.21,2659.0
684.53,2681.0
684.86,2701.0
685.18,2688.0
685.51,2700.0
685.83,2661.0
686.16,2635.0
686.48,2648.0
686.81,2670.0
687.13,2641.0
687.46,2651.0
687.78,2665.0
688.11,2640.0
688.43,2621.0
688.76,2595.0
689.08,2601.0
689.41,2581.0
689.73,2598.0
690.05,2600.0
690.38,2588.0
690.7,2587.0
691.03,2554.0
691.35,2552.0
691.68,2528.0
692.0,2530.0
692.32,2552.0
692.65,2550.0
692.97,2541.0
693.29,2550.0
693.62,2518.0
693.94,2545.0
694.27,2506.0
694.59,2503.0
694.91,2492.0
695.24,2496.0
695.56,2483.0
695.88,2471.0
696.21,2453.0
696.53,2426.0
696.85,2425.0
697.18,2444.0
697.5,2442.0
697.82,2449.0
698.15,2455.0
698.47,2438.0
698.79,2440.0
699.12,2447.0
699.44,2408.0
699.76,2391.0
700.09,2422.0
700.41,2394.0
700.73,2391.0
701.05,2411.0
701.38,2384.0
701.7,2394.0
702.02,2395.0
702.34,2373.0
702.67,2399.0
702.99,2353.0
703.31,2369.0
703.63,2348.0
703.96,2368.0
704.28,2346.0
704.6,2332.0
704.92,2325.0
705.25,2289.0
705.57,2322.0
705.89,2301.0
706.21,2301.0
706.53,2303.0
706.86,2308.0
707.18,2293.0
707.5,2334.0
707.82,2295.0
708.14,2307.0
708.46,2306.0
708.79,2273.0
709.11,2314.0
709.43,2273.0
709.75,2250.0
710.07,2262.0
710.39,2251.0
710.71,2245.0
711.04,2251.0
711.36,2245.0
711.68,2235.0
712.0,2231.0
712.32,2233.0
712.64,2219.0
712.96,2222.0
713.28,2210.0
713.6,2201.0
713.92,2201.0
714.24,2204.0
714.57,2203.0
714.89,2181.0
715.21,2181.0
715.53,2157.0
715.85,2151.0
716.17,2175.0
716.49,2161.0
716.81,2159.0
717.13,2183.0
717.45,2129.0
717.77,2146.0
718.09,2116.0
718.41,2124.0
718.73,2126.0
719.05,2115.0
719.37,2070.0
719.69,2091.0
720.01,2083.0
720.33,2084.0
720.65,2092.0
720.97,2082.0
721.29,2057.0
721.61,2066.0
721.93,2063.0
722.25,2057.0
722.57,2040.0
722.89,2036.0
723.21,2048.0
723.52,2017.0
723.84,2035.0
724.16,2040.0
724.48,2014.0
724.8,2035.0
725.12,2003.0
725.44,1992.0
725.76,1986.0
726.08,2020.0
726.4,1990.0
726.72,1983.0
727.03,1986.0
727.35,1999.0
727.67,2009.0
727.99,2001.0
728.31,1965.0
728.63,1964.0
728.95,1966.0
729.26,1972.0
729.58,1981.0
729.9,1962.0
730.22,1943.0
730.54,1931.0
730.86,1943.0
731.17,1945.0
731.49,1923.0
731.81,1940.0
732.13,1907.0
732.45,1870.0
732.76,1896.0
733.08,1912.0
733.4,1914.0
733.72,1910.0
734.03,1903.0
734.35,1898.0
734.67,1914.0
734.99,1897.0
735.3,1887.0
735.62,1883.0
735.94,1865.0
736.26,1875.0
736.57,1846.0
736.89,1875.0
737.21,1850.0
737.53,1831.0
737.84,1814.0
738.16,1820.0
738.48,1804.0
738.79,1817.0
739.11,1819.0
739.43,1792.0
739.74,1814.0
740.06,1792.0
740.38,1777.0
740.69,1786.0
741.01,1777.0
741.33,1731.0
741.64,1739.0
741.96,1735.0
742.28,1755.0
742.59,1724.0
742.91,1721.0
743.23,1698.0
743.54,1716.0
743.86,1698.0
744.17,1681.0
744.49,1686.0
744.81,1674.0
745.12,1672.0
745.44,1661.0
745.75,1657.0
746.07,1663.0
746.38,1650.0
746.7,1641.0
747.02,1680.0
747.33,1629.0
747.65,1606.0
747.96,1608.0
748.28,1614.0
748.59,1613.0
748.91,1624.0
749.22,1606.0
749.54,1593.0
749.85,1617.0
750.17,1607.0
750.48,1589.0
750.8,1575.0
751.11,1594.0
751.43,1589.0
751.74,1580.0
752.06,1567.0
752.37,1566.0
752.69,1583.0
753.0,1559.0
753.32,1580.0
753.63,1575.0
753.95,1540.0
754.26,1520.0
754.58,1538.0
754.89,1558.0
755.2,1547.0
755.52,1538.0
755.83,1526.0
756.15,1549.0
756.46,1522.0
756.78,1497.0
757.09,1523.0
757.4,1514.0
757.72,1527.0
758.03,1514.0
758.34,1515.0
758.66,1503.0
758.97,1513.0
759.29,1502.0
759.6,1492.0
759.91,1488.0
760.23,1489.0
760.54,1513.0
760.85,1478.0
761.17,1479.0
761.48,1494.0
761.79,1470.0
762.11,1462.0
762.42,1456.0
762.73,1459.0
763.05,1450.0
763.36,1466.0
763.67,1475.0
763.98,1444.0
764.3,1414.0
764.61,1432.0
764.92,1428.0
765.23,1445.0
765.55,1419.0
765.86,1408.0
766.17,1421.0
766.48,1429.0
766.8,1391.0
767.11,1415.0
767.42,1383.0
767.73,1378.0
768.05,1392.0
768.36,1387.0
768.67,1391.0
768.98,1368.0
769.29,1389.0
769.61,1374.0
769.92,1357.0
770.23,1356.0
770.54,1324.0
770.85,1338.0
771.17,1340.0
771.48,1331.0
771.79,1333.0
772.1,1329.0
772.41,1318.0
772.72,1311.0
773.03,1300.0
773.35,1287.0
773.66,1265.0
773.97,1277.0
774.28,1278.0
774.59,1276.0
774.9,1288.0
775.21,1278.0
775.52,1272.0
775.83,1246.0
776.15,1250.0
776.46,1237.0
776.77,1217.0
777.08,1230.0
777.39,1229.0
777.7,1226.0
778.01,1236.0
778.32,1238.0
778.63,1222.0
778.94,1221.0
779.25,1198.0
779.56,1197.0
779.87,1187.0
780.18,1174.0
780.49,1158.0
780.8,1158.0
781.11,1147.0
781.42,1168.0
781.73,1152.0
782.04,1133.0
782.35,1124.0
782.66,1133.0
782.97,1124.0
783.28,1125.0
783.59,1126.0
783.9,1102.0
784.21,1105.0
784.52,1096.0
784.83,1108.0
785.14,1092.0
785.45,1086.0
785.76,1070.0
786.06,1073.0
786.37,1081.0
786.68,1065.0
786.99,1059.0
787.3,1046.0
787.61,1059.0
787.92,1052.0
788.23,1043.0
788.54,1054.0
788.84,1016.0
789.15,1036.0
789.46,1038.0
789.77,1015.0
790.08,1013.0
790.39,1005.0
790.7,1003.0
791.0,1006.0
791.31,983.0
791.62,1003.0
791.93,987.0
792.24,980.0
792.54,963.0
792.85,964.0
793.16,957.0
793.47,950.0
793.78,963.0
794.08,944.0
794.39,945.0
794.7,942.0
795.01,927.0
795.31,930.0
795.62,916.0
795.93,947.0
796.24,915.0
796.54,913.0
796.85,928.0
797.16,914.0
797.47,888.0
797.77,888.0
798.08,890.0
798.39,897.0
798.69,889.0
799.0,880.0
799.31,883.0
799.62,869.0
799.92,860.0
800.23,868.0
800.54,864.0
800.84,860.0
801.15,846.0
801.46,851.0
801.76,840.0
802.07,835.0
802.37,823.0
802.68,814.0
802.99,831.0
803.29,813.0
803.6,794.0
803.91,809.0
804.21,828.0
804.52,797.0
804.82,793.0
805.13,804.0
805.44,792.0
805.74,789.0
806.05,801.0
806.35,788.0
806.66,773.0
806.96,766.0
807.27,757.0
807.57,756.0
807.88,768.0
808.19,748.0
808.49,746.0
808.8,746.0
809.1,749.0
809.41,759.0
809.71,736.0
810.02,740.0
810.32,734.0
810.63,745.0
810.93,744.0
811.24,731.0
811.54,732.0
811.85,730.0
812.15,722.0
812.45,706.0
812.76,698.0
813.06,702.0
813.37,697.0
813.67,706.0
813.98,693.0
814.28,686.0
814.58,700.0
814.89,680.0
815.19,678.0
815.5,671.0
815.8,675.0
816.11,675.0
816.41,681.0
816.71,648.0
817.02,669.0
817.32,678.0
817.62,651.0
817.93,658.0
818.23,651.0
818.53,653.0
818.84,656.0
819.14,644.0
819.44,632.0
819.75,640.0
820.05,645.0
820.35,619.0
820.66,615.0
820.96,617.0
821.26,615.0
821.57,619.0
821.87,614.0
822.17,610.0
822.48,617.0
822.78,608.0
823.08,618.0
823.38,595.0
823.69,601.0
823.99,608.0
824.29,602.0
824.59,573.0
824.9,593.0
825.2,591.0
825.5,579.0
825.8,585.0
826.1,581.0
826.41,575.0
826.71,588.0
827.01,591.0
827.31,591.0
827.61,572.0
827.92,570.0
828.22,567.0
828.52,557.0
828.82,554.0
829.12,564.0
829.42,556.0
829.73,546.0
830.03,541.0
830.33,546.0
830.63,551.0
830.93,534.0
831.23,540.0
831.53,533.0
831.83,538.0
832.14,524.0
832.44,534.0
832.74,533.0
833.04,524.0
833.34,542.0
833.64,520.0
833.94,526.0
834.24,517.0
834.54,523.0
834.84,522.0
835.14,523.0
835.44,516.0
835.74,511.0
836.04,509.0
836.34,508.0
836.64,503.0
836.95,506.0
837.25,503.0
837.55,496.0
837.85,485.0
838.15,504.0
838.45,493.0
838.74,484.0
839.04,484.0
839.34,493.0
839.64,473.0
839.94,479.0
840.24,479.0
840.54,484.0
840.84,471.0
841.14,475.0
841.44,482.0
841.74,464.0
842.04,462.0
842.34,473.0
842.64,471.0
842.94,469.0
843.24,452.0
843.53,466.0
843.83,465.0
844.13,459.0
844.43,453.0
844.73,454.0
845.03,447.0
845.33,447.0
845.63,448.0
845.92,442.0
846.22,442.0
846.52,439.0
846.82,443.0
847.12,438.0
847.42,444.0
847.71,442.0
848.01,434.0
848.31,424.0
848.61,433.0
848.91,425.0
849.2,427.0
849.5,425.0
849.8,413.0
850.1,417.0
850.39,409.0
850.69,411.0
850.99,416.0
851.29,413.0
851.59,412.0
851.88,410.0
852.18,411.0
852.48,398.0
852.77,392.0
853.07,405.0
853.37,394.0
853.67,402.0
853.96,399.0
854.26,384.0
854.56,384.0
854.85,391.0
855.15,391.0
855.45,379.0
855.74,388.0
856.04,386.0
856.34,385.0
856.63,386.0
856.93,377.0
857.23,382.0
857.52,373.0
857.82,365.0
858.11,371.0
858.41,369.0
858.71,363.0
859.0,360.0
859.3,359.0
859.59,357.0
859.89,359.0
860.19,350.0
860.48,345.0
860.78,352.0
861.07,360.0
861.37,359.0
861.66,351.0
861.96,350.0
862.26,340.0
862.55,349.0
862.85,348.0
863.14,345.0
863.44,338.0
863.73,333.0
864.03,337.0
864.32,340.0
864.62,338.0
864.91,339.0
865.21,337.0
865.5,327.0
865.8,318.0
866.09,335.0
866.39,330.0
866.68,327.0
866.97,324.0
867.27,310.0
867.56,310.0
867.86,325.0
868.15,307.0
868.45,313.0
868.74,322.0
869.03,307.0
869.33,309.0
869.62,299.0
869.92,304.0
870.21,296.0
870.5,297.0
870.8,286.0
871.09,300.0
871.39,295.0
871.68,293.0
871.97,290.0
872.27,293.0
872.56,287.0
872.85,290.0
873.15,282.0
873.44,295.0
873.73,284.0
874.03,278.0
874.32,283.0
874.61,277.0
874.9,275.0
875.2,272.0
875.49,267.0
875.78,266.0
