Wavelength,Intensity
179.53,0.0
179.91,68.0
180.29,67.0
180.67,69.0
181.05,63.0
181.42,68.0
181.80,66.0
182.18,70.0
182.56,68.0
182.94,67.0
183.32,67.0
183.70,70.0
184.08,70.0
184.46,68.0
184.83,69.0
185.21,65.0
185.59,68.0
185.97,65.0
186.35,60.0
186.73,67.0
187.11,70.0
187.48,69.0
187.86,65.0
188.24,68.0
188.62,67.0
189.00,68.0
189.38,62.0
189.75,66.0
190.13,65.0
190.51,67.0
190.89,67.0
191.27,71.0
191.65,72.0
192.02,68.0
192.40,68.0
192.78,70.0
193.16,74.0
193.54,67.0
193.91,64.0
194.29,68.0
194.67,69.0
195.05,68.0
195.43,70.0
195.80,71.0
196.18,66.0
196.56,69.0
196.94,69.0
197.32,71.0
197.69,71.0
198.07,66.0
198.45,66.0
198.83,66.0
199.20,69.0
199.58,67.0
199.96,61.0
200.34,67.0
200.71,71.0
201.09,67.0
201.47,67.0
201.85,66.0
202.22,69.0
202.60,65.0
202.98,66.0
203.36,69.0
203.73,73.0
204.11,66.0
204.49,69.0
204.86,68.0
205.24,66.0
205.62,69.0
206.00,74.0
206.37,64.0
206.75,69.0
207.13,70.0
207.50,65.0
207.88,69.0
208.26,69.0
208.64,71.0
209.01,67.0
209.39,68.0
209.77,72.0
210.14,70.0
210.52,63.0
210.90,70.0
211.27,69.0
211.65,71.0
212.03,69.0
212.40,65.0
212.78,71.0
213.16,75.0
213.53,70.0
213.91,65.0
214.29,68.0
214.66,67.0
215.04,63.0
215.41,68.0
215.79,67.0
216.17,68.0
216.54,69.0
216.92,69.0
217.30,67.0
217.67,67.0
218.05,70.0
218.42,69.0
218.80,69.0
219.18,72.0
219.55,71.0
219.93,66.0
220.30,66.0
220.68,66.0
221.06,66.0
221.43,69.0
221.81,68.0
222.18,66.0
222.56,69.0
222.94,69.0
223.31,68.0
223.69,63.0
224.06,66.0
224.44,68.0
224.81,65.0
225.19,66.0
225.57,70.0
225.94,66.0
226.32,66.0
226.69,69.0
227.07,67.0
227.44,66.0
227.82,73.0
228.19,69.0
228.57,71.0
228.94,68.0
229.32,67.0
229.69,71.0
230.07,67.0
230.45,71.0
230.82,69.0
231.20,67.0
231.57,70.0
231.95,66.0
232.32,66.0
232.70,68.0
233.07,69.0
233.45,70.0
233.82,66.0
234.20,67.0
234.57,66.0
234.95,68.0
235.32,71.0
235.69,68.0
236.07,72.0
236.44,69.0
236.82,71.0
237.19,72.0
237.57,68.0
237.94,72.0
238.32,69.0
238.69,67.0
239.07,67.0
239.44,69.0
239.82,69.0
240.19,67.0
240.56,72.0
240.94,65.0
241.31,67.0
241.69,65.0
242.06,72.0
242.44,67.0
242.81,67.0
243.18,67.0
243.56,71.0
243.93,66.0
244.31,67.0
244.68,64.0
245.05,65.0
245.43,69.0
245.80,66.0
246.18,68.0
246.55,67.0
246.92,68.0
247.30,68.0
247.67,65.0
248.04,67.0
248.42,67.0
248.79,69.0
249.17,65.0
249.54,68.0
249.91,68.0
250.29,69.0
250.66,67.0
251.03,65.0
251.41,69.0
251.78,69.0
252.15,69.0
252.53,66.0
252.90,68.0
253.27,64.0
253.65,68.0
254.02,68.0
254.39,71.0
254.77,70.0
255.14,68.0
255.51,65.0
255.89,65.0
256.26,64.0
256.63,65.0
257.01,71.0
257.38,65.0
257.75,67.0
258.12,71.0
258.50,66.0
258.87,65.0
259.24,64.0
259.62,67.0
259.99,69.0
260.36,66.0
260.73,70.0
261.11,71.0
261.48,73.0
261.85,67.0
262.22,67.0
262.60,65.0
262.97,66.0
263.34,68.0
263.71,73.0
264.09,69.0
264.46,68.0
264.83,72.0
265.20,67.0
265.58,68.0
265.95,72.0
266.32,66.0
266.69,65.0
267.06,70.0
267.44,73.0
267.81,71.0
268.18,67.0
268.55,69.0
268.93,72.0
269.30,69.0
269.67,71.0
270.04,68.0
270.41,71.0
270.78,71.0
271.16,70.0
271.53,71.0
271.90,67.0
272.27,71.0
272.64,72.0
273.02,67.0
273.39,70.0
273.76,72.0
274.13,75.0
274.50,68.0
274.87,70.0
275.24,68.0
275.62,68.0
275.99,71.0
276.36,67.0
276.73,69.0
277.10,70.0
277.47,73.0
277.84,65.0
278.22,68.0
278.59,69.0
278.96,65.0
279.33,65.0
279.70,68.0
280.07,71.0
280.44,72.0
280.81,70.0
281.18,69.0
281.55,70.0
281.93,66.0
282.30,66.0
282.67,69.0
283.04,67.0
283.41,67.0
283.78,66.0
284.15,69.0
284.52,74.0
284.89,73.0
285.26,70.0
285.63,64.0
286.00,66.0
286.37,71.0
286.74,70.0
287.11,71.0
287.49,70.0
287.86,71.0
288.23,66.0
288.60,64.0
288.97,67.0
289.34,73.0
289.71,71.0
290.08,72.0
290.45,70.0
290.82,69.0
291.19,65.0
291.56,70.0
291.93,72.0
292.30,69.0
292.67,69.0
293.04,69.0
293.41,70.0
293.78,66.0
294.15,69.0
294.52,70.0
294.89,67.0
295.26,66.0
295.63,68.0
296.00,67.0
296.37,77.0
296.73,68.0
297.10,70.0
297.47,71.0
297.84,67.0
298.21,72.0
298.58,71.0
298.95,67.0
299.32,71.0
299.69,68.0
300.06,65.0
300.43,65.0
300.80,69.0
301.17,68.0
301.54,66.0
301.91,71.0
302.27,69.0
302.64,63.0
303.01,69.0
303.38,63.0
303.75,74.0
304.12,70.0
304.49,67.0
304.86,71.0
305.23,70.0
305.60,65.0
305.96,67.0
306.33,72.0
306.70,66.0
307.07,68.0
307.44,70.0
307.81,67.0
308.18,67.0
308.54,69.0
308.91,68.0
309.28,69.0
309.65,71.0
310.02,70.0
310.39,64.0
310.76,62.0
311.12,67.0
311.49,69.0
311.86,64.0
312.23,67.0
312.60,66.0
312.96,75.0
313.33,67.0
313.70,66.0
314.07,63.0
314.44,66.0
314.80,71.0
315.17,67.0
315.54,68.0
315.91,67.0
316.28,65.0
316.64,66.0
317.01,72.0
317.38,68.0
317.75,72.0
318.12,69.0
318.48,71.0
318.85,63.0
319.22,65.0
319.59,75.0
319.95,74.0
320.32,70.0
320.69,70.0
321.06,70.0
321.42,70.0
321.79,69.0
322.16,71.0
322.52,67.0
322.89,66.0
323.26,65.0
323.63,67.0
323.99,68.0
324.36,67.0
324.73,67.0
325.09,70.0
325.46,69.0
325.83,71.0
326.20,68.0
326.56,69.0
326.93,68.0
327.30,72.0
327.66,67.0
328.03,69.0
328.40,71.0
328.76,70.0
329.13,65.0
329.50,71.0
329.86,73.0
330.23,67.0
330.60,68.0
330.96,69.0
331.33,68.0
331.70,71.0
332.06,71.0
332.43,66.0
332.80,70.0
333.16,67.0
333.53,69.0
333.89,70.0
334.26,67.0
334.63,67.0
334.99,70.0
335.36,67.0
335.72,67.0
336.09,67.0
336.46,67.0
336.82,67.0
337.19,73.0
337.55,66.0
337.92,67.0
338.29,68.0
338.65,68.0
339.02,67.0
339.38,67.0
339.75,69.0
340.11,70.0
340.48,71.0
340.85,65.0
341.21,71.0
341.58,69.0
341.94,66.0
342.31,69.0
342.67,74.0
343.04,70.0
343.40,70.0
343.77,72.0
344.13,70.0
344.50,72.0
344.86,70.0
345.23,65.0
345.60,67.0
345.96,70.0
346.33,71.0
346.69,66.0
347.06,70.0
347.42,71.0
347.79,69.0
348.15,71.0
348.51,70.0
348.88,69.0
349.24,69.0
349.61,67.0
349.97,71.0
350.34,68.0
350.70,74.0
351.07,71.0
351.43,66.0
351.80,66.0
352.16,69.0
352.53,65.0
352.89,73.0
353.25,68.0
353.62,71.0
353.98,70.0
354.35,66.0
354.71,74.0
355.08,70.0
355.44,73.0
355.80,70.0
356.17,68.0
356.53,71.0
356.90,68.0
357.26,66.0
357.63,70.0
357.99,67.0
358.35,69.0
358.72,67.0
359.08,65.0
359.44,70.0
359.81,70.0
360.17,68.0
360.54,74.0
360.90,69.0
361.26,63.0
361.63,62.0
361.99,72.0
362.35,70.0
362.72,73.0
363.08,64.0
363.44,68.0
363.81,67.0
364.17,67.0
364.53,68.0
364.90,68.0
365.26,65.0
365.62,69.0
365.99,68.0
366.35,66.0
366.71,76.0
367.08,67.0
367.44,68.0
367.80,68.0
368.17,65.0
368.53,73.0
368.89,69.0
369.25,71.0
369.62,71.0
369.98,71.0
370.34,66.0
370.71,64.0
371.07,69.0
371.43,70.0
371.79,69.0
372.16,70.0
372.52,66.0
372.88,67.0
373.24,67.0
373.61,67.0
373.97,68.0
374.33,69.0
374.69,69.0
375.05,67.0
375.42,68.0
375.78,76.0
376.14,70.0
376.50,65.0
376.87,70.0
377.23,73.0
377.59,66.0
377.95,67.0
378.31,67.0
378.68,67.0
379.04,63.0
379.40,67.0
379.76,69.0
380.12,70.0
380.48,69.0
380.85,67.0
381.21,70.0
381.57,67.0
381.93,74.0
382.29,65.0
382.65,69.0
383.02,70.0
383.38,71.0
383.74,69.0
384.10,73.0
384.46,70.0
384.82,70.0
385.18,68.0
385.55,70.0
385.91,71.0
386.27,68.0
386.63,72.0
386.99,72.0
387.35,71.0
387.71,66.0
388.07,67.0
388.43,67.0
388.80,67.0
389.16,65.0
389.52,68.0
389.88,66.0
390.24,68.0
390.60,66.0
390.96,66.0
391.32,65.0
391.68,63.0
392.04,63.0
392.40,70.0
392.76,70.0
393.12,68.0
393.48,69.0
393.84,65.0
394.20,68.0
394.57,67.0
394.93,68.0
395.29,67.0
395.65,72.0
396.01,65.0
396.37,71.0
396.73,67.0
397.09,69.0
397.45,70.0
397.81,65.0
398.17,68.0
398.53,69.0
398.89,65.0
399.25,69.0
399.61,63.0
399.97,70.0
400.33,68.0
400.69,66.0
401.04,71.0
401.40,70.0
401.76,68.0
402.12,68.0
402.48,68.0
402.84,69.0
403.20,67.0
403.56,66.0
403.92,71.0
404.28,70.0
404.64,69.0
405.00,66.0
405.36,70.0
405.72,71.0
406.08,67.0
406.44,70.0
406.79,72.0
407.15,71.0
407.51,70.0
407.87,68.0
408.23,72.0
408.59,64.0
408.95,71.0
409.31,70.0
409.67,70.0
410.03,70.0
410.38,68.0
410.74,66.0
411.10,65.0
411.46,72.0
411.82,69.0
412.18,66.0
412.54,68.0
412.89,68.0
413.25,66.0
413.61,70.0
413.97,68.0
414.33,68.0
414.69,64.0
415.04,71.0
415.40,68.0
415.76,67.0
416.12,68.0
416.48,65.0
416.83,67.0
417.19,68.0
417.55,71.0
417.91,68.0
418.27,65.0
418.62,65.0
418.98,67.0
419.34,67.0
419.70,74.0
420.06,72.0
420.41,71.0
420.77,67.0
421.13,66.0
421.49,69.0
421.84,72.0
422.20,71.0
422.56,67.0
422.92,72.0
423.27,73.0
423.63,67.0
423.99,68.0
424.34,69.0
424.70,68.0
425.06,66.0
425.42,67.0
425.77,68.0
426.13,68.0
426.49,70.0
426.84,70.0
427.20,68.0
427.56,71.0
427.92,66.0
428.27,71.0
428.63,67.0
428.99,72.0
429.34,71.0
429.70,65.0
430.06,67.0
430.41,65.0
430.77,67.0
431.13,68.0
431.48,67.0
431.84,69.0
432.20,72.0
432.55,68.0
432.91,68.0
433.26,71.0
433.62,70.0
433.98,67.0
434.33,64.0
434.69,70.0
435.05,66.0
435.40,68.0
435.76,70.0
436.11,71.0
436.47,70.0
436.83,72.0
437.18,68.0
437.54,67.0
437.89,68.0
438.25,72.0
438.60,70.0
438.96,65.0
439.32,67.0
439.67,71.0
440.03,66.0
440.38,74.0
440.74,73.0
441.09,70.0
441.45,66.0
441.80,66.0
442.16,67.0
442.52,70.0
442.87,67.0
443.23,67.0
443.58,68.0
443.94,71.0
444.29,67.0
444.65,67.0
445.00,67.0
445.36,68.0
445.71,73.0
446.07,72.0
446.42,68.0
446.78,72.0
447.13,62.0
447.49,66.0
447.84,66.0
448.20,64.0
448.55,72.0
448.90,71.0
449.26,66.0
449.61,73.0
449.97,72.0
450.32,69.0
450.68,71.0
451.03,66.0
451.39,71.0
451.74,71.0
452.09,68.0
452.45,65.0
452.80,71.0
453.16,72.0
453.51,68.0
453.87,64.0
454.22,67.0
454.57,70.0
454.93,67.0
455.28,70.0
455.64,71.0
455.99,64.0
456.34,67.0
456.70,67.0
457.05,63.0
457.40,67.0
457.76,65.0
458.11,71.0
458.46,71.0
458.82,69.0
459.17,69.0
459.53,68.0
459.88,65.0
460.23,67.0
460.59,67.0
460.94,63.0
461.29,71.0
461.65,68.0
462.00,69.0
462.35,70.0
462.70,67.0
463.06,71.0
463.41,66.0
463.76,70.0
464.12,70.0
464.47,69.0
464.82,64.0
465.18,74.0
465.53,72.0
465.88,71.0
466.23,65.0
466.59,71.0
466.94,68.0
467.29,68.0
467.64,66.0
468.00,65.0
468.35,71.0
468.70,68.0
469.05,74.0
469.41,68.0
469.76,71.0
470.11,70.0
470.46,73.0
470.82,66.0
471.17,62.0
471.52,66.0
471.87,68.0
472.22,72.0
472.58,72.0
472.93,64.0
473.28,69.0
473.63,70.0
473.98,63.0
474.34,76.0
474.69,67.0
475.04,68.0
475.39,68.0
475.74,68.0
476.09,68.0
476.45,68.0
476.80,69.0
477.15,67.0
477.50,67.0
477.85,73.0
478.20,71.0
478.55,70.0
478.91,66.0
479.26,68.0
479.61,69.0
479.96,62.0
480.31,70.0
480.66,67.0
481.01,69.0
481.36,73.0
481.71,71.0
482.07,69.0
482.42,70.0
482.77,67.0
483.12,66.0
483.47,70.0
483.82,72.0
484.17,71.0
484.52,67.0
484.87,70.0
485.22,71.0
485.57,71.0
485.92,68.0
486.27,71.0
486.62,75.0
486.97,67.0
487.32,64.0
487.68,69.0
488.03,71.0
488.38,69.0
488.73,71.0
489.08,69.0
489.43,69.0
489.78,66.0
490.13,71.0
490.48,71.0
490.83,71.0
491.18,71.0
491.53,72.0
491.88,66.0
492.23,66.0
492.58,66.0
492.92,64.0
493.27,65.0
493.62,68.0
493.97,67.0
494.32,73.0
494.67,71.0
495.02,67.0
495.37,66.0
495.72,70.0
496.07,69.0
496.42,69.0
496.77,63.0
497.12,68.0
497.47,67.0
497.82,70.0
498.17,70.0
498.51,70.0
498.86,69.0
499.21,73.0
499.56,68.0
499.91,68.0
500.26,69.0
500.61,66.0
500.96,67.0
501.31,67.0
501.65,69.0
502.00,69.0
502.35,69.0
502.70,68.0
503.05,64.0
503.40,70.0
503.75,67.0
504.09,72.0
504.44,67.0
504.79,66.0
505.14,66.0
505.49,69.0
505.83,69.0
506.18,72.0
506.53,68.0
506.88,66.0
507.23,71.0
507.58,67.0
507.92,66.0
508.27,70.0
508.62,67.0
508.97,65.0
509.31,63.0
509.66,69.0
510.01,72.0
510.36,70.0
510.71,72.0
511.05,71.0
511.40,65.0
511.75,70.0
512.10,69.0
512.44,67.0
512.79,71.0
513.14,71.0
513.48,74.0
513.83,71.0
514.18,65.0
514.53,67.0
514.87,65.0
515.22,71.0
515.57,71.0
515.91,64.0
516.26,66.0
516.61,67.0
516.96,70.0
517.30,66.0
517.65,67.0
518.00,73.0
518.34,67.0
518.69,71.0
519.04,65.0
519.38,70.0
519.73,69.0
520.08,66.0
520.42,66.0
520.77,74.0
521.11,70.0
521.46,72.0
521.81,68.0
522.15,69.0
522.50,70.0
522.85,70.0
523.19,69.0
523.54,69.0
523.88,70.0
524.23,70.0
524.58,66.0
524.92,69.0
525.27,68.0
525.61,72.0
525.96,66.0
526.30,67.0
526.65,67.0
527.00,74.0
527.34,68.0
527.69,70.0
528.03,67.0
528.38,71.0
528.72,62.0
529.07,64.0
529.41,71.0
529.76,69.0
530.11,68.0
530.45,65.0
530.80,63.0
531.14,67.0
531.49,67.0
531.83,66.0
532.18,71.0
532.52,75.0
532.87,69.0
533.21,70.0
533.56,66.0
533.90,65.0
534.25,71.0
534.59,70.0
534.94,63.0
535.28,69.0
535.62,71.0
535.97,70.0
536.31,67.0
536.66,65.0
537.00,71.0
537.35,71.0
537.69,69.0
538.04,69.0
538.38,69.0
538.72,66.0
539.07,70.0
539.41,67.0
539.76,74.0
540.10,71.0
540.44,67.0
540.79,65.0
541.13,66.0
541.48,67.0
541.82,69.0
542.16,71.0
542.51,66.0
542.85,71.0
543.20,67.0
543.54,70.0
543.88,72.0
544.23,69.0
544.57,65.0
544.91,69.0
545.26,68.0
545.60,68.0
545.94,68.0
546.29,66.0
546.63,68.0
546.97,67.0
547.32,62.0
547.66,68.0
548.00,72.0
548.35,69.0
548.69,69.0
549.03,72.0
549.37,65.0
549.72,67.0
550.06,66.0
550.40,64.0
550.75,68.0
551.09,69.0
551.43,69.0
551.77,72.0
552.12,64.0
552.46,68.0
552.80,66.0
553.14,69.0
553.49,68.0
553.83,66.0
554.17,67.0
554.51,69.0
554.85,64.0
555.20,69.0
555.54,64.0
555.88,66.0
556.22,70.0
556.57,64.0
556.91,69.0
557.25,68.0
557.59,70.0
557.93,68.0
558.27,69.0
558.62,71.0
558.96,69.0
559.30,67.0
559.64,69.0
559.98,68.0
560.32,68.0
560.67,69.0
561.01,69.0
561.35,70.0
561.69,74.0
562.03,68.0
562.37,72.0
562.71,70.0
563.06,70.0
563.40,70.0
563.74,75.0
564.08,73.0
564.42,68.0
564.76,70.0
565.10,70.0
565.44,65.0
565.78,65.0
566.12,63.0
566.47,70.0
566.81,71.0
567.15,66.0
567.49,66.0
567.83,65.0
568.17,69.0
568.51,71.0
568.85,66.0
569.19,74.0
569.53,69.0
569.87,67.0
570.21,67.0
570.55,71.0
570.89,70.0
571.23,67.0
571.57,71.0
571.91,68.0
572.25,68.0
572.59,73.0
572.93,64.0
573.27,68.0
573.61,72.0
573.95,69.0
574.29,68.0
574.63,68.0
574.97,67.0
575.31,69.0
575.65,68.0
575.99,69.0
576.33,67.0
576.67,69.0
577.01,72.0
577.35,64.0
577.69,66.0
578.02,66.0
578.36,64.0
578.70,72.0
579.04,64.0
579.38,64.0
579.72,69.0
580.06,67.0
580.40,67.0
580.74,68.0
581.08,65.0
581.42,63.0
581.75,66.0
582.09,68.0
582.43,70.0
582.77,70.0
583.11,68.0
583.45,67.0
583.79,73.0
584.12,73.0
584.46,68.0
584.80,64.0
585.14,67.0
585.48,67.0
585.82,68.0
586.15,71.0
586.49,67.0
586.83,71.0
587.17,67.0
587.51,68.0
587.84,69.0
588.18,67.0
588.52,70.0
588.86,71.0
589.20,67.0
589.53,71.0
589.87,70.0
590.21,72.0
590.55,64.0
590.88,65.0
591.22,66.0
591.56,66.0
591.90,68.0
592.23,64.0
592.57,65.0
592.91,65.0
593.25,69.0
593.58,67.0
593.92,65.0
594.26,70.0
594.60,69.0
594.93,72.0
595.27,68.0
595.61,69.0
595.94,66.0
596.28,72.0
596.62,67.0
596.95,67.0
597.29,70.0
597.63,70.0
597.96,71.0
598.30,67.0
598.64,70.0
598.97,68.0
599.31,69.0
599.65,62.0
599.98,66.0
600.32,70.0
600.66,69.0
600.99,69.0
601.33,72.0
601.66,67.0
602.00,69.0
602.34,72.0
602.67,67.0
603.01,68.0
603.34,71.0
603.68,63.0
604.02,69.0
604.35,69.0
604.69,68.0
605.02,71.0
605.36,67.0
605.69,77.0
606.03,70.0
606.37,66.0
606.70,65.0
607.04,70.0
607.37,70.0
607.71,72.0
608.04,68.0
608.38,69.0
608.71,66.0
609.05,64.0
609.38,72.0
609.72,71.0
610.05,70.0
610.39,67.0
610.72,65.0
611.06,69.0
611.39,70.0
611.73,66.0
612.06,67.0
612.40,67.0
612.73,69.0
613.07,67.0
613.40,66.0
613.74,66.0
614.07,73.0
614.40,66.0
614.74,68.0
615.07,68.0
615.41,66.0
615.74,67.0
616.08,69.0
616.41,72.0
616.74,68.0
617.08,67.0
617.41,69.0
617.75,71.0
618.08,64.0
618.41,72.0
618.75,69.0
619.08,68.0
619.42,66.0
619.75,65.0
620.08,67.0
620.42,66.0
620.75,71.0
621.08,62.0
621.42,65.0
621.75,74.0
622.08,69.0
622.42,71.0
622.75,67.0
623.08,66.0
623.42,68.0
623.75,66.0
624.08,67.0
624.42,69.0
624.75,70.0
625.08,67.0
625.42,70.0
625.75,69.0
626.08,67.0
626.41,67.0
626.75,67.0
627.08,69.0
627.41,72.0
627.75,74.0
628.08,69.0
628.41,70.0
628.74,65.0
629.08,70.0
629.41,71.0
629.74,64.0
630.07,69.0
630.40,69.0
630.74,67.0
631.07,69.0
631.40,71.0
631.73,70.0
632.07,68.0
632.40,66.0
632.73,67.0
633.06,66.0
633.39,71.0
633.72,67.0
634.06,72.0
634.39,67.0
634.72,68.0
635.05,74.0
635.38,70.0
635.71,66.0
636.05,71.0
636.38,68.0
636.71,68.0
637.04,67.0
637.37,69.0
637.70,69.0
638.03,66.0
638.36,69.0
638.70,67.0
639.03,70.0
639.36,72.0
639.69,69.0
640.02,67.0
640.35,69.0
640.68,63.0
641.01,66.0
641.34,69.0
641.67,68.0
642.00,67.0
642.33,71.0
642.67,74.0
643.00,66.0
643.33,67.0
643.66,65.0
643.99,65.0
644.32,67.0
644.65,68.0
644.98,71.0
645.31,66.0
645.64,63.0
645.97,66.0
646.30,70.0
646.63,67.0
646.96,71.0
647.29,69.0
647.62,72.0
647.95,64.0
648.28,64.0
648.61,72.0
648.94,68.0
649.27,69.0
649.60,72.0
649.92,68.0
650.25,68.0
650.58,67.0
650.91,69.0
651.24,72.0
651.57,72.0
651.90,65.0
652.23,67.0
652.56,70.0
652.89,66.0
653.22,67.0
653.55,67.0
653.88,67.0
654.20,69.0
654.53,67.0
654.86,68.0
655.19,71.0
655.52,68.0
655.85,67.0
656.18,67.0
656.51,69.0
656.83,66.0
657.16,73.0
657.49,67.0
657.82,68.0
658.15,69.0
658.48,73.0
658.80,69.0
659.13,66.0
659.46,65.0
659.79,67.0
660.12,70.0
660.44,73.0
660.77,68.0
661.10,71.0
661.43,67.0
661.76,67.0
662.08,70.0
662.41,67.0
662.74,73.0
663.07,71.0
663.39,68.0
663.72,70.0
664.05,68.0
664.38,68.0
664.70,64.0
665.03,67.0
665.36,66.0
665.69,72.0
666.01,69.0
666.34,65.0
666.67,67.0
666.99,76.0
667.32,73.0
667.65,68.0
667.97,69.0
668.30,70.0
668.63,66.0
668.95,65.0
669.28,70.0
669.61,71.0
669.93,64.0
670.26,72.0
670.59,67.0
670.91,68.0
671.24,66.0
671.57,68.0
671.89,67.0
672.22,70.0
672.55,66.0
672.87,65.0
673.20,67.0
673.52,67.0
673.85,65.0
674.18,66.0
674.50,71.0
674.83,67.0
675.15,70.0
675.48,63.0
675.81,67.0
676.13,67.0
676.46,67.0
676.78,68.0
677.11,68.0
677.43,74.0
677.76,72.0
678.08,66.0
678.41,70.0
678.74,74.0
679.06,67.0
679.39,65.0
679.71,67.0
680.04,69.0
680.36,66.0
680.69,65.0
681.01,67.0
681.34,66.0
681.66,65.0
681.99,65.0
682.31,69.0
682.63,70.0
682.96,66.0
683.28,67.0
683.61,69.0
683.93,69.0
684.26,68.0
684.58,67.0
684.91,68.0
685.23,70.0
685.56,68.0
685.88,68.0
686.20,69.0
686.53,70.0
686.85,66.0
687.18,69.0
687.50,66.0
687.82,70.0
688.15,64.0
688.47,69.0
688.80,69.0
689.12,69.0
689.44,69.0
689.77,70.0
690.09,67.0
690.41,69.0
690.74,69.0
691.06,69.0
691.38,68.0
691.71,70.0
692.03,68.0
692.35,72.0
692.68,68.0
693.00,69.0
693.32,67.0
693.65,67.0
693.97,69.0
694.29,68.0
694.62,67.0
694.94,69.0
695.26,69.0
695.58,70.0
695.91,70.0
696.23,67.0
696.55,67.0
696.87,72.0
697.20,69.0
697.52,68.0
697.84,64.0
698.16,68.0
698.49,67.0
698.81,63.0
699.13,66.0
699.45,70.0
699.78,65.0
700.10,67.0
700.42,63.0
700.74,70.0
701.06,69.0
701.39,64.0
701.71,69.0
702.03,71.0
702.35,68.0
702.67,69.0
702.99,66.0
703.32,70.0
703.64,65.0
703.96,68.0
704.28,68.0
704.60,70.0
704.92,64.0
705.24,65.0
705.57,63.0
705.89,67.0
706.21,67.0
706.53,72.0
706.85,70.0
707.17,70.0
707.49,68.0
707.81,71.0
708.13,64.0
708.45,69.0
708.78,68.0
709.10,68.0
709.42,69.0
709.74,68.0
710.06,70.0
710.38,72.0
710.70,65.0
711.02,72.0
711.34,66.0
711.66,69.0
711.98,66.0
712.30,66.0
712.62,69.0
712.94,65.0
713.26,70.0
713.58,68.0
713.90,69.0
714.22,70.0
714.54,64.0
714.86,68.0
715.18,71.0
715.50,65.0
715.82,67.0
716.14,71.0
716.46,66.0
716.78,66.0
717.10,70.0
717.42,70.0
717.74,67.0
718.06,68.0
718.38,67.0
718.69,71.0
719.01,67.0
719.33,67.0
719.65,64.0
719.97,68.0
720.29,70.0
720.61,63.0
720.93,67.0
721.25,68.0
721.56,67.0
721.88,66.0
722.20,67.0
722.52,72.0
722.84,66.0
723.16,64.0
723.48,68.0
723.79,66.0
724.11,63.0
724.43,67.0
724.75,66.0
725.07,64.0
725.39,68.0
725.70,68.0
726.02,66.0
726.34,67.0
726.66,61.0
726.98,70.0
727.29,67.0
727.61,68.0
727.93,69.0
728.25,66.0
728.56,68.0
728.88,67.0
729.20,68.0
729.52,66.0
729.84,71.0
730.15,68.0
730.47,66.0
730.79,65.0
731.10,67.0
731.42,68.0
731.74,64.0
732.06,64.0
732.37,67.0
732.69,66.0
733.01,66.0
733.32,72.0
733.64,67.0
733.96,67.0
734.27,69.0
734.59,65.0
734.91,66.0
735.22,65.0
735.54,68.0
735.86,69.0
736.17,67.0
736.49,65.0
736.81,67.0
737.12,68.0
737.44,67.0
737.75,70.0
738.07,63.0
738.39,69.0
738.70,67.0
739.02,63.0
739.33,71.0
739.65,68.0
739.97,67.0
740.28,64.0
740.60,69.0
740.91,68.0
741.23,74.0
741.55,70.0
741.86,66.0
742.18,64.0
742.49,67.0
742.81,69.0
743.12,69.0
743.44,70.0
743.75,67.0
744.07,69.0
744.38,69.0
744.70,69.0
745.01,67.0
745.33,67.0
745.64,68.0
745.96,68.0
746.27,74.0
746.59,68.0
746.90,71.0
747.22,70.0
747.53,69.0
747.85,67.0
748.16,70.0
748.47,66.0
748.79,72.0
749.10,67.0
749.42,70.0
749.73,63.0
750.05,68.0
750.36,69.0
750.67,71.0
750.99,67.0
751.30,73.0
751.62,71.0
751.93,73.0
752.24,67.0
752.56,69.0
752.87,67.0
753.19,70.0
753.50,67.0
753.81,62.0
754.13,65.0
754.44,70.0
754.75,72.0
755.07,71.0
755.38,70.0
755.69,65.0
756.01,67.0
756.32,66.0
756.63,70.0
756.95,71.0
757.26,67.0
757.57,67.0
757.88,66.0
758.20,67.0
758.51,64.0
758.82,62.0
759.14,72.0
759.45,68.0
759.76,64.0
760.07,66.0
760.39,70.0
760.70,65.0
761.01,67.0
761.32,65.0
761.63,67.0
761.95,70.0
762.26,69.0
762.57,67.0
762.88,64.0
763.20,67.0
763.51,71.0
763.82,71.0
764.13,73.0
764.44,71.0
764.75,70.0
765.07,71.0
765.38,67.0
765.69,65.0
766.00,69.0
766.31,71.0
766.62,65.0
766.94,61.0
767.25,65.0
767.56,64.0
767.87,70.0
768.18,68.0
768.49,72.0
768.80,73.0
769.11,62.0
769.42,64.0
769.74,62.0
770.05,66.0
770.36,72.0
770.67,69.0
770.98,63.0
771.29,67.0
771.60,70.0
771.91,71.0
772.22,76.0
772.53,68.0
772.84,67.0
773.15,70.0
773.46,72.0
773.77,69.0
774.08,69.0
774.39,70.0
774.70,69.0
775.01,67.0
775.32,64.0
775.63,66.0
775.94,66.0
776.25,72.0
776.56,72.0
776.87,71.0
777.18,66.0
777.49,69.0
777.80,70.0
778.11,68.0
778.42,68.0
778.73,75.0
779.04,69.0
779.35,70.0
779.66,75.0
779.97,72.0
780.28,71.0
780.58,70.0
780.89,71.0
781.20,67.0
781.51,72.0
781.82,65.0
782.13,67.0
782.44,66.0
782.75,68.0
783.06,66.0
783.36,70.0
783.67,67.0
783.98,63.0
784.29,70.0
784.60,64.0
784.91,67.0
785.21,67.0
785.52,71.0
785.83,67.0
786.14,68.0
786.45,65.0
786.76,64.0
787.06,66.0
787.37,64.0
787.68,68.0
787.99,65.0
788.29,71.0
788.60,71.0
788.91,68.0
789.22,65.0
789.52,65.0
789.83,65.0
790.14,68.0
790.45,71.0
790.75,69.0
791.06,67.0
791.37,69.0
791.68,69.0
791.98,71.0
792.29,62.0
792.60,64.0
792.90,70.0
793.21,62.0
793.52,72.0
793.82,70.0
794.13,66.0
794.44,67.0
794.74,66.0
795.05,71.0
795.36,69.0
795.66,68.0
795.97,63.0
796.28,71.0
796.58,66.0
796.89,72.0
797.20,68.0
797.50,63.0
797.81,67.0
798.11,66.0
798.42,68.0
798.73,69.0
799.03,68.0
799.34,71.0
799.64,68.0
799.95,67.0
800.25,67.0
800.56,69.0
800.87,67.0
801.17,65.0
801.48,69.0
801.78,65.0
802.09,71.0
802.39,66.0
802.70,68.0
803.00,71.0
803.31,67.0
803.61,67.0
803.92,70.0
804.22,73.0
804.53,73.0
804.83,70.0
805.14,68.0
805.44,63.0
805.75,70.0
806.05,73.0
806.36,68.0
806.66,69.0
806.97,68.0
807.27,69.0
807.57,70.0
807.88,69.0
808.18,67.0
808.49,66.0
808.79,64.0
809.10,68.0
809.40,72.0
809.70,69.0
810.01,69.0
810.31,68.0
810.62,65.0
810.92,70.0
811.22,68.0
811.53,69.0
811.83,69.0
812.13,71.0
812.44,65.0
812.74,68.0
813.04,69.0
813.35,67.0
813.65,67.0
813.95,67.0
814.26,66.0
814.56,72.0
814.86,73.0
815.17,68.0
815.47,67.0
815.77,69.0
816.08,69.0
816.38,70.0
816.68,65.0
816.98,70.0
817.29,68.0
817.59,67.0
817.89,68.0
818.19,67.0
818.50,70.0
818.80,63.0
819.10,67.0
819.40,69.0
819.71,71.0
820.01,68.0
820.31,71.0
820.61,72.0
820.91,67.0
821.22,76.0
821.52,70.0
821.82,65.0
822.12,67.0
822.42,69.0
822.72,67.0
823.03,72.0
823.33,66.0
823.63,68.0
823.93,69.0
824.23,70.0
824.53,67.0
824.83,66.0
825.14,68.0
825.44,71.0
825.74,72.0
826.04,67.0
826.34,68.0
826.64,69.0
826.94,68.0
827.24,68.0
827.54,69.0
827.84,71.0
828.14,67.0
828.44,70.0
828.75,65.0
829.05,72.0
829.35,70.0
829.65,70.0
829.95,63.0
830.25,70.0
830.55,70.0
830.85,68.0
831.15,67.0
831.45,68.0
831.75,71.0
832.05,67.0
832.35,71.0
832.65,67.0
832.95,65.0
833.25,63.0
833.55,69.0
833.85,68.0
834.15,68.0
834.45,67.0
834.74,72.0
835.04,67.0
835.34,68.0
835.64,69.0
835.94,71.0
836.24,65.0
836.54,69.0
836.84,67.0
837.14,73.0
837.44,74.0
837.74,68.0
838.04,67.0
838.33,65.0
838.63,66.0
838.93,68.0
839.23,67.0
839.53,68.0
839.83,68.0
840.13,71.0
840.42,66.0
840.72,68.0
841.02,71.0
841.32,65.0
841.62,66.0
841.91,71.0
842.21,69.0
842.51,66.0
842.81,68.0
843.11,63.0
843.40,70.0
843.70,68.0
844.00,68.0
844.30,70.0
844.60,70.0
844.89,75.0
845.19,70.0
845.49,70.0
845.79,73.0
846.08,68.0
846.38,72.0
846.68,69.0
846.97,68.0
847.27,70.0
847.57,70.0
847.87,69.0
848.16,69.0
848.46,68.0
848.76,68.0
849.05,68.0
849.35,67.0
849.65,69.0
849.94,65.0
850.24,68.0
850.54,67.0
850.83,66.0
851.13,65.0
851.42,69.0
851.72,67.0
852.02,71.0
852.31,73.0
852.61,66.0
852.91,69.0
853.20,70.0
853.50,65.0
853.79,69.0
854.09,70.0
854.38,69.0
854.68,68.0
854.98,70.0
855.27,65.0
855.57,70.0
855.86,70.0
856.16,68.0
856.45,72.0
856.75,66.0
857.04,71.0
857.34,71.0
857.63,67.0
857.93,70.0
858.22,72.0
858.52,70.0
858.81,68.0
859.11,69.0
859.40,68.0
859.70,66.0
859.99,66.0
860.29,67.0
860.58,65.0
860.88,67.0
861.17,72.0
861.47,68.0
861.76,72.0
862.05,68.0
862.35,70.0
862.64,67.0
862.94,66.0
863.23,65.0
863.53,68.0
863.82,66.0
864.11,67.0
864.41,71.0
864.70,69.0
864.99,68.0
865.29,67.0
865.58,71.0
865.88,67.0
866.17,65.0
866.46,61.0
866.76,65.0
867.05,72.0
867.34,66.0
867.64,68.0
867.93,64.0
868.22,64.0
868.51,68.0
868.81,62.0
869.10,69.0
869.39,74.0
869.69,67.0
869.98,68.0
870.27,70.0
870.56,69.0
870.86,69.0
871.15,71.0
871.44,71.0
871.73,67.0
872.03,70.0
872.32,64.0
872.61,72.0
872.90,69.0
873.20,70.0
873.49,67.0
873.78,67.0
874.07,66.0
874.36,69.0
874.66,67.0
874.95,70.0
875.24,67.0
875.53,66.0
875.82,66.0
