OOIBase32 Version 1.0.0.8 Data File
++++++++++++++++++++++++++++++++++++
Date: Sunday, January 20, 1980, 01:21:38
User: Valued Ocean Optics Customer
Spectrometer Serial Number: Unknown
Spectrometer Channel: Master
Integration Time (msec): 5
Spectra Averaged: 20
Boxcar Smoothing: 0
Correct for Electrical Dark: Disabled
Time Normalized: Disabled
Dual-beam Reference: Disabled
Reference Channel: Master
>>>>>Begin Spectral Data<<<<<
179.00	0.0000
179.38	0.0000
179.75	58.9000
180.13	59.1500
180.51	60.3500
180.88	60.8000
181.26	61.2500
181.64	60.5000
182.02	60.6000
182.39	60.8000
182.77	60.1000
183.15	60.1500
183.52	60.3500
183.90	60.6500
184.28	60.3500
184.65	60.5000
185.03	60.6000
185.41	60.4500
185.78	59.9000
186.16	60.8500
186.53	60.2500
186.91	58.9000
187.29	61.1000
187.66	60.3500
188.04	59.6000
188.42	62.0500
188.79	61.8500
189.17	63.0000
189.55	62.9500
189.92	62.2000
190.30	62.6000
190.67	62.3000
191.05	62.9500
191.43	63.2500
191.80	61.8500
192.18	62.0500
192.56	62.6000
192.93	62.0500
193.31	62.8500
193.68	62.8500
194.06	62.5000
194.44	62.8500
194.81	62.6000
195.19	62.2000
195.56	61.9500
195.94	62.3500
196.32	62.9500
196.69	63.0000
197.07	63.0500
197.44	62.0500
197.82	64.2500
198.19	62.1500
198.57	62.3000
198.95	62.9000
199.32	63.7000
199.70	62.9000
200.07	62.7500
200.45	62.4500
200.82	62.3500
201.20	62.6500
201.57	62.6500
201.95	62.3000
202.33	62.2000
202.70	62.8000
203.08	62.8000
203.45	62.6500
203.83	63.3500
204.20	63.4000
204.58	63.7500
204.95	61.9000
205.33	62.3500
205.70	63.4000
206.08	62.8500
206.45	62.9500
206.83	62.8000
207.20	62.9000
207.58	62.3500
207.95	62.9500
208.33	62.4000
208.70	62.4500
209.08	62.2000
209.45	62.3500
209.83	63.3000
210.20	63.5000
210.58	63.0000
210.95	63.9500
211.33	62.6000
211.70	62.2000
212.08	62.8000
212.45	62.5000
212.83	62.3000
213.20	62.3000
213.58	63.1500
213.95	63.8000
214.33	62.4000
214.70	63.1500
215.07	63.4500
215.45	62.5500
215.82	63.3000
216.20	63.4500
216.57	62.9500
216.95	63.0000
217.32	63.9000
217.70	63.5500
218.07	62.7500
218.44	63.6500
218.82	62.7000
219.19	63.6000
219.57	62.6500
219.94	62.9500
220.32	62.9000
220.69	63.1000
221.06	62.5500
221.44	63.2500
221.81	62.0500
222.19	63.1500
222.56	63.0500
222.93	62.6500
223.31	61.8500
223.68	63.4500
224.06	63.1500
224.43	63.9000
224.80	62.9500
225.18	63.1500
225.55	62.8000
225.92	63.0500
226.30	62.8500
226.67	62.9000
227.05	63.0500
227.42	62.8500
227.79	62.7500
228.17	62.6000
228.54	63.0000
228.91	63.0500
229.29	63.1000
229.66	63.5000
230.03	63.2000
230.41	63.0500
230.78	62.9500
231.15	63.3000
231.53	63.4000
231.90	62.3000
232.27	62.4000
232.65	62.2500
233.02	63.5000
233.39	64.1500
233.77	63.4000
234.14	64.0000
234.51	62.4500
234.89	64.0500
235.26	62.8500
235.63	63.0000
236.01	61.6000
236.38	63.1000
236.75	63.4000
237.12	62.4500
237.50	63.4500
237.87	64.2000
238.24	63.2500
238.62	64.3500
238.99	62.8000
239.36	63.7500
239.73	63.3000
240.11	63.9500
240.48	63.1000
240.85	62.7500
241.23	63.6000
241.60	64.5500
241.97	64.0500
242.34	63.3000
242.72	62.2000
243.09	62.8500
243.46	63.0000
243.83	63.8000
244.21	62.5500
244.58	63.3000
244.95	63.3000
245.32	63.0500
245.70	62.9500
246.07	63.2000
246.44	63.4000
246.81	63.2500
247.18	63.9000
247.56	63.5500
247.93	62.8000
248.30	63.5500
248.67	63.6000
249.04	63.1000
249.42	62.9500
249.79	63.9500
250.16	62.4000
250.53	64.4000
250.90	63.2500
251.28	63.3000
251.65	63.8000
252.02	64.2000
252.39	63.7500
252.76	63.4500
253.14	63.5000
253.51	64.4000
253.88	63.8000
254.25	63.2500
254.62	62.9500
254.99	63.8000
255.37	64.4500
255.74	63.2500
256.11	62.0500
256.48	64.1000
256.85	64.4000
257.22	63.2000
257.59	63.5000
257.97	62.9500
258.34	63.2000
258.71	63.5500
259.08	63.7500
259.45	63.5500
259.82	63.6500
260.19	62.5000
260.56	62.0000
260.94	63.7000
261.31	62.7500
261.68	64.1000
262.05	63.3500
262.42	63.6000
262.79	63.2500
263.16	63.3500
263.53	62.7500
263.90	63.5500
264.28	64.0000
264.65	63.8500
265.02	62.9500
265.39	63.0500
265.76	63.0000
266.13	62.6000
266.50	63.3500
266.87	63.2000
267.24	64.2500
267.61	64.6000
267.98	64.3000
268.35	64.8000
268.72	62.9500
269.09	62.8500
269.46	63.0500
269.84	64.3000
270.21	63.5500
270.58	63.8000
270.95	64.1000
271.32	62.9500
271.69	64.5500
272.06	64.1000
272.43	65.0000
272.80	63.2500
273.17	63.6000
273.54	64.0500
273.91	63.3500
274.28	64.2000
274.65	64.1500
275.02	63.2000
275.39	63.4000
275.76	63.1500
276.13	62.7500
276.50	63.8000
276.87	63.9000
277.24	63.9500
277.61	63.2000
277.98	62.9000
278.35	63.7500
278.72	63.9500
279.09	64.5000
279.46	63.6500
279.83	63.4500
280.20	64.4000
280.57	64.0000
280.94	63.4000
281.31	64.4500
281.67	63.7000
282.04	62.9000
282.41	64.3500
282.78	64.1500
283.15	63.4500
283.52	64.1500
283.89	64.3000
284.26	63.7500
284.63	63.7000
285.00	63.7000
285.37	63.9500
285.74	63.5000
286.11	62.7000
286.48	64.2000
286.85	63.8500
287.21	63.3500
287.58	62.9500
287.95	63.4000
288.32	63.8500
288.69	63.8000
289.06	62.8500
289.43	62.9000
289.80	64.5000
290.17	64.2500
290.54	63.5000
290.90	64.7000
291.27	63.3500
291.64	64.3500
292.01	64.1000
292.38	63.6000
292.75	64.1000
293.12	63.3500
293.48	63.1500
293.85	64.2000
294.22	64.2000
294.59	62.6000
294.96	63.4500
295.33	63.8500
295.70	63.8500
296.06	63.5500
296.43	62.9000
296.80	63.2500
297.17	62.4000
297.54	63.6000
297.91	63.6000
298.27	63.5500
298.64	64.0500
299.01	64.0500
299.38	63.8500
299.75	62.5000
300.11	63.6500
300.48	63.6500
300.85	64.6500
301.22	64.3000
301.59	63.9000
301.95	63.4500
302.32	63.4500
302.69	64.0000
303.06	62.8000
303.43	63.6500
303.79	62.8500
304.16	63.0000
304.53	63.2500
304.90	63.4000
305.26	63.9000
305.63	64.0000
306.00	64.4500
306.37	64.6000
306.73	63.4000
307.10	62.5000
307.47	63.5500
307.84	64.2500
308.20	63.5500
308.57	65.1500
308.94	63.4500
309.31	63.8000
309.67	64.3000
310.04	63.8500
310.41	63.8500
310.77	62.9500
311.14	64.1500
311.51	64.1500
311.88	64.0500
312.24	64.1500
312.61	63.5000
312.98	63.2500
313.34	65.0000
313.71	64.6000
314.08	64.4500
314.44	64.1000
314.81	63.9500
315.18	63.7500
315.55	64.9500
315.91	64.7500
316.28	64.3000
316.65	64.6500
317.01	63.7000
317.38	64.0500
317.75	64.2500
318.11	63.5500
318.48	64.4000
318.84	63.4500
319.21	64.2500
319.58	63.0500
319.94	63.3000
320.31	63.7500
320.68	64.5500
321.04	64.4500
321.41	64.2500
321.78	64.7500
322.14	64.4000
322.51	64.3000
322.87	65.0000
323.24	64.3000
323.61	65.1000
323.97	63.9000
324.34	63.2000
324.70	63.9500
325.07	62.8500
325.44	63.5500
325.80	63.2000
326.17	63.2500
326.53	64.8000
326.90	64.9000
327.27	64.5000
327.63	63.2500
328.00	64.4500
328.36	63.3000
328.73	63.8000
329.09	64.4000
329.46	66.2500
329.83	64.5000
330.19	64.1000
330.56	63.2500
330.92	64.2500
331.29	65.2000
331.65	63.9000
332.02	64.8500
332.38	63.4000
332.75	64.5500
333.11	63.9000
333.48	62.6500
333.84	65.3000
334.21	64.3000
334.58	64.4000
334.94	64.3000
335.31	63.3000
335.67	64.6000
336.04	64.4000
336.40	65.4500
336.77	64.7000
337.13	64.7500
337.50	64.3000
337.86	63.8000
338.22	64.9000
338.59	64.1000
338.95	64.5000
339.32	64.7000
339.68	64.5500
340.05	64.4000
340.41	65.3500
340.78	64.3000
341.14	65.1500
341.51	64.8500
341.87	64.5000
342.24	64.6000
342.60	64.1000
342.96	63.8500
343.33	62.6000
343.69	63.8500
344.06	65.5500
344.42	65.0000
344.79	65.2000
345.15	64.2500
345.51	64.8000
345.88	63.9500
346.24	65.6000
346.61	64.4000
346.97	64.8500
347.34	65.5500
347.70	64.6500
348.06	63.9000
348.43	64.9500
348.79	65.1000
349.16	65.1500
349.52	64.9500
349.88	64.1500
350.25	64.8500
350.61	64.6000
350.97	65.1500
351.34	64.3000
351.70	64.8000
352.07	64.9500
352.43	64.3000
352.79	64.1500
353.16	64.3500
353.52	65.2500
353.88	64.5000
354.25	64.8000
354.61	64.7000
354.97	64.9000
355.34	64.8000
355.70	64.4500
356.06	65.5000
356.43	65.6500
356.79	65.7500
357.15	64.6500
357.52	64.6500
357.88	64.9000
358.24	64.4500
358.60	64.5500
358.97	65.3000
359.33	64.8500
359.69	65.0500
360.06	65.2000
360.42	66.5500
360.78	65.2500
361.14	64.2000
361.51	66.7000
361.87	65.6000
362.23	66.8500
362.60	65.9000
362.96	66.5000
363.32	64.8000
363.68	66.2000
364.05	66.5000
364.41	66.3000
364.77	65.4000
365.13	65.8500
365.50	65.9000
365.86	66.2500
366.22	66.5500
366.58	66.0000
366.95	66.4000
367.31	66.3000
367.67	66.0500
368.03	66.5500
368.39	65.9500
368.76	66.1000
369.12	66.7500
369.48	65.1000
369.84	66.7500
370.20	67.7000
370.57	67.3000
370.93	66.2000
371.29	67.1500
371.65	67.3000
372.01	66.6000
372.38	66.2000
372.74	67.0500
373.10	66.5000
373.46	67.6500
373.82	67.5500
374.18	65.7000
374.55	66.5000
374.91	68.0500
375.27	67.2500
375.63	67.4000
375.99	66.8500
376.35	67.7500
376.71	68.1500
377.08	67.1000
377.44	66.0000
377.80	67.1500
378.16	67.9000
378.52	67.7000
378.88	68.5000
379.24	67.0500
379.60	67.9500
379.97	69.2000
380.33	68.6000
380.69	67.4000
381.05	67.4000
381.41	68.1000
381.77	69.3500
382.13	69.3000
382.49	69.2500
382.85	69.3500
383.21	68.6500
383.57	69.8500
383.94	70.2000
384.30	69.7000
384.66	68.8500
385.02	69.2500
385.38	70.4000
385.74	69.5500
386.10	69.6500
386.46	70.2000
386.82	70.2500
387.18	70.0000
387.54	69.7500
387.90	70.2500
388.26	70.1500
388.62	71.5500
388.98	70.8500
389.34	71.1000
389.70	70.3500
390.06	70.1500
390.42	71.4500
390.78	70.7500
391.14	71.5500
391.50	71.1500
391.86	71.7000
392.22	72.1500
392.58	71.1000
392.94	70.6000
393.30	70.6500
393.66	71.1000
394.02	72.5500
394.38	71.7000
394.74	72.8500
395.10	72.4500
395.46	73.8000
395.82	72.4000
396.18	72.1500
396.54	73.4500
396.90	73.8500
397.26	74.3500
397.62	74.6000
397.98	74.5500
398.34	72.8000
398.70	74.2500
399.05	72.8500
399.41	73.3000
399.77	74.1500
400.13	75.2000
400.49	74.4500
400.85	75.4000
401.21	73.4500
401.57	75.2500
401.93	75.3000
402.29	75.6000
402.65	76.2500
403.00	77.3000
403.36	76.7500
403.72	75.9000
404.08	77.5000
404.44	74.7500
404.80	76.5000
405.16	77.7000
405.52	77.4500
405.87	77.8000
406.23	79.2000
406.59	76.8500
406.95	77.4000
407.31	77.9500
407.67	77.0000
408.03	77.5000
408.38	79.3500
408.74	79.0000
409.10	79.5500
409.46	77.5000
409.82	80.0500
410.17	79.8000
410.53	78.8500
410.89	79.7500
411.25	78.6000
411.61	79.2500
411.97	81.2500
412.32	80.8500
412.68	80.5500
413.04	79.8000
413.40	77.5500
413.75	79.6000
414.11	81.5000
414.47	81.0000
414.83	82.8500
415.19	80.9000
415.54	81.0000
415.90	82.8500
416.26	82.2500
416.62	82.1000
416.97	81.8000
417.33	83.5500
417.69	83.3000
418.05	82.9000
418.40	82.2500
418.76	82.9000
419.12	84.4000
419.48	83.4000
419.83	85.7500
420.19	83.5500
420.55	84.1500
420.90	85.3000
421.26	84.7000
421.62	84.5500
421.98	86.7500
422.33	85.7500
422.69	87.6500
423.05	88.5500
423.40	86.4000
423.76	85.6500
424.12	88.1000
424.47	87.8500
424.83	86.7000
425.19	87.0500
425.54	86.9500
425.90	88.1000
426.26	89.4500
426.61	90.4500
426.97	86.0000
427.33	90.0500
427.68	90.8000
428.04	90.2500
428.40	93.1000
428.75	93.9000
429.11	91.7000
429.47	93.9000
429.82	94.6000
430.18	94.8000
430.53	93.6500
430.89	93.3000
431.25	94.1000
431.60	95.1000
431.96	94.2000
432.31	93.7500
432.67	96.6000
433.03	95.5500
433.38	95.1000
433.74	96.1000
434.09	94.6000
434.45	95.9000
434.81	94.9500
435.16	97.7500
435.52	96.5500
435.87	93.8500
436.23	94.8500
436.58	94.8500
436.94	98.6000
437.30	97.4000
437.65	100.3000
438.01	99.0500
438.36	99.3000
438.72	97.5500
439.07	97.8000
439.43	98.4000
439.78	101.0500
440.14	102.2500
440.49	100.5000
440.85	100.1500
441.20	100.9000
441.56	100.6000
441.91	104.4500
442.27	101.7000
442.62	102.6500
442.98	103.0000
443.33	101.7000
443.69	102.3500
444.04	104.3500
444.40	100.0500
444.75	105.0500
445.11	106.6000
445.46	106.8500
445.82	106.9500
446.17	104.3500
446.53	106.3000
446.88	113.0500
447.23	105.2000
447.59	105.2000
447.94	102.7000
448.30	108.5000
448.65	107.3500
449.01	109.2500
449.36	110.6500
449.72	113.8000
450.07	115.8500
450.42	113.8500
450.78	112.2000
451.13	114.5500
451.49	112.7000
451.84	110.7000
452.19	111.0000
452.55	114.9000
452.90	113.5000
453.26	118.3000
453.61	120.1000
453.96	111.0500
454.32	116.9500
454.67	118.5500
455.02	114.3000
455.38	116.2000
455.73	116.7000
456.09	122.2000
456.44	121.0000
456.79	120.2500
457.15	120.0500
457.50	119.3000
457.85	120.4500
458.21	119.0000
458.56	122.0000
458.91	121.8500
459.27	118.3000
459.62	121.0500
459.97	120.3000
460.32	123.4500
460.68	123.8500
461.03	122.4000
461.38	123.0500
461.74	132.2000
462.09	128.2500
462.44	125.4000
462.80	124.5500
463.15	126.6500
463.50	126.8500
463.85	132.5500
464.21	129.3000
464.56	133.1000
464.91	129.0000
465.26	128.8000
465.62	130.2500
465.97	136.2500
466.32	133.8500
466.67	134.2500
467.03	136.0000
467.38	137.5500
467.73	138.6000
468.08	141.6000
468.44	140.1000
468.79	139.7000
469.14	136.0500
469.49	141.7500
469.85	144.9500
470.20	151.9500
470.55	151.0000
470.90	152.0500
471.25	148.7000
471.61	151.4000
471.96	153.7500
472.31	154.4000
472.66	155.7500
473.01	158.8500
473.36	161.8500
473.72	159.5500
474.07	164.1500
474.42	165.6500
474.77	164.4000
475.12	168.3500
475.47	169.5500
475.83	171.3500
476.18	171.6500
476.53	170.3500
476.88	178.3000
477.23	178.6000
477.58	177.1500
477.93	180.4000
478.28	180.3500
478.64	183.6000
478.99	185.9500
479.34	187.6000
479.69	190.5500
480.04	193.6000
480.39	194.7500
480.74	194.3500
481.09	200.0500
481.44	200.5000
481.79	202.2000
482.15	201.9000
482.50	205.2500
482.85	205.5500
483.20	211.2000
483.55	209.7500
483.90	213.4000
484.25	212.1500
484.60	212.2000
484.95	216.8500
485.30	218.6000
485.65	220.4000
486.00	223.2000
486.35	221.5500
486.70	223.7500
487.05	229.6000
487.40	229.3500
487.75	229.0500
488.10	231.9000
488.45	228.3000
488.80	231.6000
489.15	236.9000
489.50	236.6000
489.85	238.1500
490.20	240.0000
490.55	242.4000
490.90	241.7500
491.25	243.4500
491.60	244.1000
491.95	245.4500
492.30	246.6500
492.65	249.0000
493.00	251.1000
493.35	251.2000
493.70	252.7500
494.05	253.5000
494.40	257.1500
494.75	257.3500
495.10	257.9500
495.45	259.2500
495.80	260.8000
496.15	262.6500
496.50	261.9000
496.84	263.3500
497.19	264.3500
497.54	269.0000
497.89	268.3500
498.24	269.3000
498.59	273.0000
498.94	273.7000
499.29	274.6500
499.64	275.2000
499.99	279.6500
500.33	281.9000
500.68	284.4000
501.03	287.0500
501.38	288.7000
501.73	293.5500
502.08	293.4000
502.43	299.7500
502.77	301.2500
503.12	305.1500
503.47	307.1000
503.82	313.4500
504.17	319.2500
504.52	322.6500
504.86	324.9500
505.21	335.3500
505.56	336.1500
505.91	341.3500
506.26	346.9500
506.61	355.4000
506.95	362.9000
507.30	369.5000
507.65	380.5500
508.00	385.0500
508.35	393.2000
508.69	402.1000
509.04	413.8500
509.39	419.9000
509.74	429.0000
510.08	438.2500
510.43	454.0000
510.78	466.6500
511.13	476.9000
511.47	493.1000
511.82	507.1000
512.17	519.6500
512.52	537.7500
512.86	552.8500
513.21	567.0000
513.56	584.3000
513.91	602.7500
514.25	618.6000
514.60	640.0000
514.95	656.0500
515.30	671.6500
515.64	688.7500
515.99	717.0500
516.34	736.7000
516.68	758.4500
517.03	774.1000
517.38	791.6000
517.72	823.0500
518.07	837.1000
518.42	856.2000
518.76	878.3500
519.11	899.7500
519.46	925.0500
519.80	932.9000
520.15	955.6500
520.50	979.7500
520.84	992.3000
521.19	1012.6000
521.54	1031.8500
521.88	1042.4000
522.23	1064.4000
522.58	1074.5000
522.92	1093.9500
523.27	1111.2500
523.61	1125.7500
523.96	1137.0500
524.31	1165.0000
524.65	1175.9000
525.00	1178.2500
525.34	1179.7500
525.69	1190.4500
526.04	1219.8000
526.38	1226.5500
526.73	1237.2500
527.07	1252.5000
527.42	1256.2000
527.76	1266.0500
528.11	1280.9500
528.46	1280.0000
528.80	1282.8500
529.15	1283.2000
529.49	1292.0500
529.84	1300.3000
530.18	1311.8500
530.53	1329.8500
530.87	1330.1000
531.22	1328.3000
531.56	1335.2500
531.91	1341.7500
532.25	1340.3000
532.60	1343.3500
532.94	1355.6500
533.29	1351.8500
533.63	1349.1000
533.98	1354.9500
534.32	1364.3500
534.67	1376.3000
535.01	1385.3500
535.36	1381.8500
535.70	1396.5000
536.05	1398.0500
536.39	1405.2000
536.74	1390.0000
537.08	1383.1500
537.43	1389.2000
537.77	1403.7000
538.12	1421.2500
538.46	1423.6500
538.80	1430.7500
539.15	1417.7500
539.49	1424.4500
539.84	1442.6000
540.18	1439.7000
540.53	1439.4500
540.87	1436.5500
541.21	1457.3000
541.56	1450.9000
541.90	1461.8500
542.25	1456.0500
542.59	1454.2500
542.93	1471.4000
543.28	1462.6000
543.62	1474.1000
543.97	1473.6000
544.31	1483.6000
544.65	1484.5500
545.00	1493.4000
545.34	1496.6000
545.68	1500.1000
546.03	1497.3500
546.37	1511.8500
546.71	1512.3500
547.06	1519.1500
547.40	1515.4500
547.74	1536.8500
548.09	1525.9000
548.43	1535.3000
548.77	1538.2000
549.12	1534.4000
549.46	1533.4500
549.80	1549.1500
550.15	1557.5500
550.49	1564.1500
550.83	1559.4500
551.17	1569.0500
551.52	1567.4000
551.86	1569.9000
552.20	1579.4000
552.55	1588.3500
552.89	1591.6000
553.23	1596.6500
553.57	1603.7000
553.92	1601.3500
554.26	1614.2000
554.60	1609.4000
554.94	1612.5500
555.29	1624.5000
555.63	1630.4000
555.97	1636.9000
556.31	1634.2000
556.66	1642.5000
557.00	1636.2500
557.34	1653.9000
557.68	1663.0000
558.02	1662.2500
558.37	1660.1000
558.71	1669.5000
559.05	1666.2500
559.39	1676.9500
559.73	1686.9000
560.08	1685.1500
560.42	1696.0000
560.76	1694.8500
561.10	1695.7500
561.44	1694.0000
561.78	1709.2000
562.13	1712.9000
562.47	1703.5000
562.81	1720.6500
563.15	1716.8000
563.49	1724.8000
563.83	1735.8000
564.17	1735.2500
564.52	1736.5000
564.86	1744.9000
565.20	1746.3000
565.54	1746.6000
565.88	1743.0000
566.22	1755.6000
566.56	1747.1000
566.90	1758.6500
567.24	1761.1500
567.59	1755.9000
567.93	1760.4500
568.27	1770.2500
568.61	1780.9000
568.95	1770.3500
569.29	1771.3000
569.63	1792.9000
569.97	1785.3000
570.31	1763.1000
570.65	1778.7500
570.99	1788.1500
571.33	1795.4500
571.67	1783.4000
572.01	1786.0000
572.35	1796.9500
572.69	1802.1000
573.03	1809.1500
573.37	1803.2000
573.71	1800.3500
574.05	1787.5500
574.39	1791.2500
574.73	1801.5000
575.07	1796.6000
575.41	1801.0000
575.75	1805.9000
576.09	1824.0500
576.43	1815.7500
576.77	1816.6000
577.11	1800.3000
577.45	1815.6000
577.79	1801.9000
578.13	1818.7500
578.47	1795.6000
578.81	1802.3500
579.15	1813.8000
579.49	1828.9000
579.83	1828.5500
580.17	1833.1500
580.51	1827.8500
580.85	1830.3000
581.19	1824.5500
581.53	1817.8500
581.87	1825.2000
582.20	1824.8500
582.54	1832.1500
582.88	1827.6000
583.22	1815.2500
583.56	1814.1000
583.90	1841.9500
584.24	1831.4000
584.58	1831.0500
584.92	1842.6500
585.25	1842.7000
585.59	1836.8000
585.93	1848.1000
586.27	1855.3500
586.61	1831.7000
586.95	1847.2000
587.29	1853.2000
587.62	1844.7000
587.96	1851.2500
588.30	1849.7500
588.64	1847.1000
588.98	1848.8000
589.31	1857.0000
589.65	1847.5500
589.99	1838.2500
590.33	1854.3000
590.67	1857.0500
591.01	1859.6000
591.34	1870.9000
591.68	1866.7000
592.02	1871.9000
592.36	1863.8000
592.69	1866.5500
593.03	1874.6500
593.37	1876.2500
593.71	1873.5500
594.04	1875.3000
594.38	1869.3500
594.72	1885.5000
595.06	1879.0500
595.39	1874.4000
595.73	1879.6500
596.07	1897.4000
596.41	1893.5000
596.74	1892.0500
597.08	1893.7500
597.42	1898.1000
597.76	1884.0500
598.09	1900.3500
598.43	1893.2500
598.77	1902.6000
599.10	1910.6000
599.44	1900.5500
599.78	1904.4500
600.11	1915.1000
600.45	1917.4000
600.79	1914.6500
601.12	1909.9000
601.46	1929.1500
601.80	1927.8500
602.13	1916.0000
602.47	1929.8500
602.81	1916.7000
603.14	1922.1500
603.48	1939.3500
603.82	1927.0500
604.15	1930.5500
604.49	1937.5000
604.82	1934.3500
605.16	1941.6500
605.50	1925.2000
605.83	1953.1000
606.17	1947.5000
606.50	1948.4000
606.84	1940.0500
607.18	1942.6500
607.51	1946.9000
607.85	1948.4000
608.18	1951.7000
608.52	1953.9000
608.86	1955.7500
609.19	1961.0000
609.53	1942.7500
609.86	1961.5000
610.20	1957.0500
610.53	1954.5000
610.87	1949.3000
611.20	1977.0500
611.54	1948.1500
611.87	1961.8000
612.21	1967.0500
612.54	1958.9000
612.88	1959.2000
613.21	1963.9500
613.55	1966.6500
613.88	1958.5500
614.22	1962.9500
614.55	1951.9500
614.89	1948.3000
615.22	1955.2000
615.56	1954.3500
615.89	1960.5500
616.23	1965.2000
616.56	1941.1500
616.90	1961.2000
617.23	1945.8500
617.57	1969.7500
617.90	1958.0500
618.24	1963.3500
618.57	1964.7000
618.90	1954.1500
619.24	1948.0000
619.57	1952.2500
619.91	1966.8000
620.24	1934.2000
620.58	1953.7000
620.91	1954.2500
621.24	1956.3000
621.58	1959.3500
621.91	1946.5500
622.25	1950.1000
622.58	1952.4500
622.91	1967.8000
623.25	1940.8500
623.58	1949.5500
623.91	1945.7000
624.25	1951.9500
624.58	1948.7000
624.92	1947.2000
625.25	1950.8500
625.58	1935.2000
625.92	1957.9000
626.25	1942.2500
626.58	1951.0000
626.92	1941.4000
627.25	1950.9500
627.58	1944.2000
627.91	1948.1500
628.25	1945.3000
628.58	1949.7500
628.91	1937.5500
629.25	1940.3500
629.58	1935.6500
629.91	1937.7000
630.25	1949.4500
630.58	1939.0500
630.91	1933.4500
631.24	1940.7000
631.58	1941.3500
631.91	1948.2000
632.24	1921.2000
632.57	1929.3000
632.91	1937.6000
633.24	1921.3000
633.57	1931.4000
633.90	1935.5000
634.24	1929.3000
634.57	1932.5500
634.90	1931.0500
635.23	1905.7500
635.56	1913.7500
635.90	1910.3000
636.23	1915.4000
636.56	1919.5500
636.89	1922.1000
637.22	1918.3500
637.56	1919.2500
637.89	1897.1000
638.22	1903.9000
638.55	1914.0000
638.88	1887.1000
639.21	1900.6000
639.55	1897.2000
639.88	1901.1500
640.21	1902.7500
640.54	1892.7500
640.87	1890.4500
641.20	1891.9500
641.53	1904.2500
641.87	1893.9000
642.20	1893.3000
642.53	1886.6500
642.86	1891.2500
643.19	1888.4000
643.52	1888.0000
643.85	1885.5000
644.18	1883.5000
644.51	1875.0500
644.84	1880.1500
645.18	1874.5000
645.51	1869.4500
645.84	1878.2000
646.17	1875.6000
646.50	1878.7000
646.83	1883.7000
647.16	1867.5500
647.49	1869.9000
647.82	1873.3000
648.15	1869.4000
648.48	1876.7500
648.81	1876.8000
649.14	1866.6000
649.47	1869.6000
649.80	1858.0500
650.13	1851.2500
650.46	1866.5500
650.79	1860.2500
651.12	1873.4000
651.45	1863.4000
651.78	1851.3500
652.11	1858.1000
652.44	1850.6500
652.77	1855.9500
653.10	1866.5000
653.43	1862.9500
653.76	1862.4000
654.09	1846.5500
654.42	1855.2000
654.75	1855.1500
655.08	1846.3000
655.41	1847.2500
655.74	1827.9000
656.07	1850.4000
656.39	1848.3500
656.72	1842.2500
657.05	1839.9500
657.38	1853.2000
657.71	1851.2500
658.04	1840.0000
658.37	1839.7500
658.70	1847.6500
659.03	1841.5500
659.36	1837.8000
659.68	1839.9000
660.01	1839.1000
660.34	1841.4000
660.67	1836.2000
661.00	1847.1500
661.33	1829.1000
661.66	1824.4000
661.98	1834.3500
662.31	1834.2500
662.64	1825.7000
662.97	1824.7500
663.30	1813.4000
663.63	1819.5000
663.95	1808.7500
664.28	1816.3500
664.61	1809.9500
664.94	1815.8500
665.27	1825.0500
665.59	1810.6000
665.92	1819.6000
666.25	1806.6500
666.58	1795.5000
666.91	1818.9500
667.23	1804.8500
667.56	1798.3000
667.89	1792.2500
668.22	1800.5500
668.54	1800.1500
668.87	1807.3000
669.20	1793.2000
669.53	1799.6500
669.85	1796.1000
670.18	1783.6000
670.51	1779.5000
670.83	1775.7500
671.16	1788.0500
671.49	1790.6000
671.82	1779.5500
672.14	1765.5000
672.47	1773.4000
672.80	1769.1000
673.12	1774.1500
673.45	1778.6500
673.78	1753.6000
674.10	1768.2500
674.43	1752.0000
674.76	1748.7000
675.08	1759.5000
675.41	1742.8000
675.74	1745.2500
676.06	1747.8000
676.39	1736.6500
676.72	1737.8500
677.04	1742.6500
677.37	1738.6500
677.69	1726.4500
678.02	1721.8500
678.35	1723.1000
678.67	1697.6000
679.00	1723.5000
679.32	1718.6500
679.65	1708.9000
679.98	1716.6500
680.30	1701.5500
680.63	1699.4500
680.95	1690.8500
681.28	1697.7000
681.60	1683.6000
681.93	1681.0000
682.26	1684.1000
682.58	1680.8500
682.91	1682.8500
683.23	1667.1000
683.56	1659.8500
683.88	1669.5500
684.21	1657.4000
684.53	1666.0500
684.86	1663.4000
685.18	1656.7500
685.51	1656.9500
685.83	1648.7500
686.16	1632.4500
686.48	1629.0500
686.81	1632.4500
687.13	1635.2500
687.46	1628.2000
687.78	1635.9500
688.11	1614.6000
688.43	1610.3000
688.76	1614.2500
689.08	1610.1000
689.41	1600.5000
689.73	1593.6500
690.05	1600.2500
690.38	1590.9500
690.70	1593.4500
691.03	1580.6000
691.35	1578.1500
691.68	1560.1500
692.00	1563.8500
692.32	1577.8000
692.65	1570.6500
692.97	1571.6000
693.29	1566.7500
693.62	1553.5500
693.94	1563.2000
694.27	1546.6000
694.59	1524.1000
694.91	1540.0000
695.24	1544.8500
695.56	1527.1500
695.88	1529.4500
696.21	1504.9000
696.53	1496.7500
696.85	1515.1000
697.18	1516.4500
697.50	1506.8000
697.82	1514.2000
698.15	1506.5000
698.47	1503.3500
698.79	1503.3500
699.12	1500.6500
699.44	1480.6500
699.76	1477.2000
700.09	1476.4000
700.41	1477.6000
700.73	1465.8000
701.05	1474.8000
701.38	1465.7000
701.70	1467.9000
702.02	1468.2000
702.34	1457.7500
702.67	1459.6500
702.99	1461.4500
703.31	1442.7000
703.63	1450.9000
703.96	1444.0000
704.28	1431.7000
704.60	1430.0000
704.92	1437.2500
705.25	1430.2500
705.57	1429.1500
705.89	1424.3500
706.21	1424.6000
706.53	1418.9500
706.86	1417.1500
707.18	1410.0500
707.50	1421.6500
707.82	1399.5500
708.14	1412.8500
708.46	1417.7000
708.79	1394.0500
709.11	1408.5000
709.43	1386.4500
709.75	1385.1500
710.07	1384.9500
710.39	1392.2500
710.71	1378.9500
711.04	1376.3500
711.36	1372.3500
711.68	1375.4000
712.00	1366.2500
712.32	1370.0000
712.64	1357.3000
712.96	1358.4500
713.28	1348.2000
713.60	1359.2000
713.92	1340.2000
714.24	1350.4000
714.57	1345.7500
714.89	1339.3000
715.21	1339.0500
715.53	1329.3000
715.85	1331.6000
716.17	1331.2500
716.49	1331.2500
716.81	1325.3000
717.13	1323.5500
717.45	1312.3000
717.77	1308.2500
718.09	1302.5500
718.41	1303.9000
718.73	1301.3500
719.05	1294.5000
719.37	1278.2000
719.69	1289.3000
720.01	1287.4000
720.33	1275.5000
720.65	1272.0000
720.97	1273.0500
721.29	1264.5000
721.61	1269.5000
721.93	1265.7000
722.25	1257.6500
722.57	1248.7500
722.89	1244.5500
723.21	1250.2000
723.52	1240.7500
723.84	1234.8000
724.16	1244.1500
724.48	1235.4000
724.80	1235.9500
725.12	1230.8500
725.44	1228.8000
725.76	1226.8500
726.08	1227.3000
726.40	1216.3500
726.72	1223.5500
727.03	1225.3000
727.35	1220.7000
727.67	1213.5000
727.99	1209.5500
728.31	1214.2000
728.63	1208.9500
728.95	1205.4500
729.26	1198.9500
729.58	1197.4500
729.90	1195.2500
730.22	1178.2500
730.54	1181.8500
730.86	1187.8500
731.17	1188.7500
731.49	1176.0500
731.81	1187.7500
732.13	1185.3500
732.45	1167.5500
732.76	1169.2500
733.08	1170.2500
733.40	1163.3500
733.72	1159.6500
734.03	1156.3500
734.35	1156.2500
734.67	1162.8500
734.99	1151.0000
735.30	1154.0000
735.62	1151.7500
735.94	1143.9000
736.26	1134.7000
736.57	1132.6000
736.89	1141.9000
737.21	1121.6000
737.53	1120.2000
737.84	1122.9500
738.16	1110.3500
738.48	1109.9000
738.79	1114.8500
739.11	1107.5000
739.43	1097.6000
739.74	1093.7500
740.06	1087.4000
740.38	1084.3000
740.69	1081.3500
741.01	1073.2500
741.33	1069.0000
741.64	1065.8000
741.96	1066.6500
742.28	1064.0500
742.59	1046.2500
742.91	1045.9000
743.23	1042.7000
743.54	1046.9500
743.86	1034.3500
744.17	1031.2500
744.49	1033.0500
744.81	1026.9000
745.12	1018.9500
745.44	1013.7000
745.75	1014.7000
746.07	1009.1000
746.38	1003.7500
746.70	999.2500
747.02	1002.7000
747.33	991.2500
747.65	992.9500
747.96	990.7500
748.28	990.4000
748.59	985.6000
748.91	981.6000
749.22	981.7000
749.54	976.1500
749.85	977.9000
750.17	978.5500
750.48	968.4000
750.80	968.2000
751.11	966.5000
751.43	963.3000
751.74	963.4000
752.06	960.2000
752.37	958.7500
752.69	955.1000
753.00	956.7000
753.32	954.4000
753.63	954.5000
753.95	953.7500
754.26	942.0500
754.58	942.5500
754.89	945.8000
755.20	944.5500
755.52	941.3000
755.83	938.5000
756.15	933.7000
756.46	929.6000
756.78	928.2500
757.09	924.6000
757.40	926.7500
757.72	924.5500
758.03	922.1500
758.34	917.6500
758.66	921.6000
758.97	921.0500
759.29	915.9500
759.60	915.2000
759.91	908.2500
760.23	910.2500
760.54	909.0500
760.85	905.0000
761.17	901.5500
761.48	900.5500
761.79	889.3000
762.11	890.3500
762.42	889.6500
762.73	895.3000
763.05	886.4500
763.36	892.5000
763.67	888.3500
763.98	876.9500
764.30	866.2500
764.61	874.4000
764.92	872.2000
765.23	869.6000
765.55	862.5000
765.86	860.6000
766.17	860.1000
766.48	859.3500
766.80	849.0000
767.11	854.6500
767.42	838.0500
767.73	838.0000
768.05	839.9000
768.36	844.5000
768.67	846.7500
768.98	836.9500
769.29	846.8000
769.61	832.2000
769.92	820.0500
770.23	823.7500
770.54	808.5000
770.85	815.3500
771.17	816.9000
771.48	814.0500
771.79	811.3000
772.10	803.4500
772.41	804.9000
772.72	795.9500
773.03	791.8000
773.35	784.0500
773.66	779.9500
773.97	780.7000
774.28	776.9000
774.59	771.1500
774.90	774.5000
775.21	775.7500
775.52	771.5000
775.83	768.8000
776.15	760.3500
776.46	752.6500
776.77	752.3500
777.08	754.6500
777.39	751.9500
777.70	743.5000
778.01	745.9000
778.32	747.1000
778.63	744.6500
778.94	739.8000
779.25	734.2500
779.56	727.7500
779.87	720.5500
780.18	716.1000
780.49	716.1000
780.80	714.3500
781.11	708.8000
781.42	705.2500
781.73	704.5500
782.04	692.7500
782.35	687.8000
782.66	689.9500
782.97	687.9000
783.28	691.6500
783.59	683.9000
783.90	684.6500
784.21	677.0000
784.52	673.2000
784.83	670.6000
785.14	667.0000
785.45	662.7500
785.76	654.0500
786.06	655.8000
786.37	660.4500
786.68	653.0500
786.99	651.1000
787.30	643.3500
787.61	648.6000
787.92	639.0500
788.23	632.5500
788.54	641.4500
788.84	635.3000
789.15	634.2000
789.46	631.7500
789.77	623.8000
790.08	622.6000
790.39	617.0500
790.70	620.3500
791.00	620.5000
791.31	603.2000
791.62	611.2000
791.93	603.5000
792.24	604.8000
792.54	598.8500
792.85	594.3000
793.16	591.2500
793.47	586.0500
793.78	587.7000
794.08	582.9500
794.39	578.5000
794.70	582.4500
795.01	573.1500
795.31	573.7000
795.62	566.3000
795.93	571.4000
796.24	572.7000
796.54	561.9000
796.85	563.5500
797.16	554.7500
797.47	551.4000
797.77	549.4000
798.08	549.2000
798.39	551.2500
798.69	548.7000
799.00	540.2000
799.31	541.6500
799.62	537.4500
799.92	533.6000
800.23	534.3000
800.54	531.9000
800.84	529.9500
801.15	524.0000
801.46	524.9000
801.76	524.7500
802.07	516.8000
802.37	513.2500
802.68	511.4500
802.99	513.3000
803.29	504.3000
803.60	499.1000
803.91	498.4000
804.21	496.7000
804.52	500.3000
804.82	495.6500
805.13	498.6000
805.44	493.9500
805.74	490.1000
806.05	492.4500
806.35	487.0000
806.66	481.4000
806.96	481.0000
807.27	474.9500
807.57	475.6500
807.88	476.4500
808.19	470.4500
808.49	471.8500
808.80	466.9000
809.10	464.6500
809.41	467.4000
809.71	462.6500
810.02	459.0500
810.32	454.8500
810.63	457.2500
810.93	455.6500
811.24	451.3000
811.54	455.3000
811.85	452.1500
812.15	445.6500
812.45	445.1500
812.76	443.3000
813.06	437.5500
813.37	437.3000
813.67	439.2500
813.98	435.7000
814.28	430.1000
814.58	432.1500
814.89	426.1000
815.19	425.9500
815.50	422.9000
815.80	422.2500
816.11	419.8000
816.41	420.8000
816.71	418.5500
817.02	417.3500
817.32	413.4500
817.62	408.9000
817.93	412.3000
818.23	405.4500
818.53	406.7500
818.84	408.4500
819.14	403.8000
819.44	401.6000
819.75	399.3500
820.05	396.0500
820.35	391.9000
820.66	392.2500
820.96	393.2500
821.26	393.1000
821.57	391.5000
821.87	387.7500
822.17	387.4500
822.48	386.7000
822.78	386.8000
823.08	381.3000
823.38	382.5000
823.69	378.9000
823.99	379.8000
824.29	376.1500
824.59	370.8000
824.90	377.7500
825.20	370.8000
825.50	370.3500
825.80	366.1500
826.10	367.6500
826.41	365.6000
826.71	363.0000
827.01	363.9500
827.31	365.1000
827.61	361.4500
827.92	362.6500
828.22	356.9500
828.52	357.5500
828.82	357.3500
829.12	352.6000
829.42	352.5000
829.73	351.9500
830.03	349.6000
830.33	349.9000
830.63	346.5000
830.93	344.9500
831.23	341.6500
831.53	344.3000
831.83	340.6000
832.14	338.0000
832.44	339.8000
832.74	335.5000
833.04	335.7000
833.34	337.9000
833.64	331.9500
833.94	328.9000
834.24	330.5000
834.54	332.8000
834.84	328.8000
835.14	325.6500
835.44	327.1000
835.74	322.9500
836.04	320.6000
836.34	323.1000
836.64	321.8500
836.95	322.6500
837.25	317.1500
837.55	318.7500
837.85	317.0500
838.15	318.6000
838.45	314.7500
838.74	313.1500
839.04	308.9500
839.34	309.8000
839.64	306.1500
839.94	306.1500
840.24	306.8000
840.54	308.8000
840.84	306.9500
841.14	302.4500
841.44	301.5500
841.74	301.8000
842.04	300.5000
842.34	299.6000
842.64	297.5000
842.94	299.8500
843.24	297.2000
843.53	296.0000
843.83	292.1000
844.13	292.2500
844.43	289.1000
844.73	290.5500
845.03	288.6500
845.33	285.9000
845.63	285.0500
845.92	287.6500
846.22	286.0000
846.52	283.5500
846.82	284.5000
847.12	281.2500
847.42	283.2000
847.71	279.5000
848.01	278.6500
848.31	275.9500
848.61	274.9000
848.91	274.3500
849.20	275.6000
849.50	275.1500
849.80	275.6500
850.10	272.6000
850.39	267.8000
850.69	270.1000
850.99	268.7000
851.29	266.0500
851.59	267.2000
851.88	263.9500
852.18	263.3500
852.48	264.0000
852.77	260.3000
853.07	262.2000
853.37	258.6000
853.67	258.8000
853.96	257.1500
854.26	256.9500
854.56	255.7500
854.85	253.9500
855.15	252.5000
855.45	253.4000
855.74	251.6000
856.04	250.2000
856.34	248.6500
856.63	251.4000
856.93	246.3500
857.23	246.5000
857.52	243.3500
857.82	244.2500
858.11	244.2000
858.41	243.7000
858.71	241.2500
859.00	239.8500
859.30	240.5500
859.59	240.2000
859.89	239.0500
860.19	234.1500
860.48	234.9500
860.78	235.0500
861.07	236.7500
861.37	233.6000
861.66	233.2500
861.96	231.4500
862.26	229.3500
862.55	230.4000
862.85	227.9000
863.14	227.4000
863.44	225.0000
863.73	225.2000
864.03	224.0000
864.32	224.0000
864.62	221.3000
864.91	221.5500
865.21	218.5500
865.50	216.8500
865.80	219.7500
866.09	218.4500
866.39	217.0500
866.68	215.1500
866.97	212.7500
867.27	214.9000
867.56	211.8000
867.86	212.5500
868.15	211.2500
868.45	206.1500
868.74	207.9500
869.03	208.1500
869.33	206.9000
869.62	204.8000
869.92	204.5000
870.21	200.7000
870.50	200.6000
870.80	200.4500
871.09	199.6500
871.39	199.3500
871.68	198.0000
871.97	196.4000
872.27	196.3000
872.56	193.5500
872.85	193.9000
873.15	193.7000
873.44	191.0500
873.73	192.2500
874.03	189.8500
874.32	188.8500
874.61	188.1500
874.90	189.3500
875.20	186.7000
875.49	185.3500
875.78	183.2500
>>>>>End Spectral Data<<<<<
