OOIBase32 Version 1.0.0.8 Data File
++++++++++++++++++++++++++++++++++++
Date: Sunday, January 20, 1980, 01:17:54
User: Valued Ocean Optics Customer
Spectrometer Serial Number: Unknown
Spectrometer Channel: Master
Integration Time (msec): 5
Spectra Averaged: 20
Boxcar Smoothing: 0
Correct for Electrical Dark: Disabled
Time Normalized: Disabled
Dual-beam Reference: Disabled
Reference Channel: Master
>>>>>Begin Spectral Data<<<<<
179.00	0.0000
179.38	0.0000
179.75	59.4500
180.13	60.5500
180.51	60.6500
180.88	61.8500
181.26	61.2500
181.64	62.1000
182.02	59.7500
182.39	62.6000
182.77	61.1000
183.15	60.5500
183.52	61.2500
183.90	60.3000
184.28	60.9000
184.65	60.8000
185.03	60.2500
185.41	61.3000
185.78	60.2000
186.16	60.5500
186.53	60.7000
186.91	61.3000
187.29	60.6000
187.66	62.0500
188.04	61.1500
188.42	64.0000
188.79	63.8500
189.17	64.1000
189.55	64.3000
189.92	62.9000
190.30	64.5500
190.67	63.4000
191.05	63.9500
191.43	64.0000
191.80	64.1000
192.18	63.8500
192.56	63.4500
192.93	64.0000
193.31	63.6000
193.68	64.1500
194.06	63.9500
194.44	63.3500
194.81	64.3500
195.19	64.5500
195.56	64.8500
195.94	63.7500
196.32	63.8500
196.69	64.2500
197.07	63.3000
197.44	64.9000
197.82	63.0500
198.19	64.4000
198.57	63.8000
198.95	64.3000
199.32	64.4000
199.70	62.7500
200.07	64.4000
200.45	64.3000
200.82	64.8000
201.20	63.9000
201.57	64.7500
201.95	64.4000
202.33	64.7500
202.70	64.3000
203.08	64.1500
203.45	65.2000
203.83	64.8500
204.20	63.9500
204.58	64.5500
204.95	64.1500
205.33	64.2500
205.70	64.6500
206.08	64.4000
206.45	64.5500
206.83	64.9500
207.20	63.9000
207.58	64.6000
207.95	64.1500
208.33	64.6500
208.70	64.8000
209.08	65.2000
209.45	65.4000
209.83	64.8000
210.20	64.4000
210.58	63.7000
210.95	64.1500
211.33	64.8000
211.70	64.1500
212.08	64.8500
212.45	64.7500
212.83	64.4000
213.20	63.9500
213.58	64.4500
213.95	64.9500
214.33	64.4000
214.70	65.4000
215.07	63.8500
215.45	64.4500
215.82	64.9000
216.20	65.4500
216.57	64.2500
216.95	64.8000
217.32	65.1000
217.70	64.8000
218.07	63.8000
218.44	64.3000
218.82	64.3000
219.19	64.8500
219.57	64.3000
219.94	64.7500
220.32	64.3000
220.69	65.9000
221.06	64.6000
221.44	64.4500
221.81	64.6500
222.19	64.0500
222.56	64.1000
222.93	65.2000
223.31	64.3000
223.68	64.1500
224.06	64.9500
224.43	64.8000
224.80	63.2000
225.18	64.8000
225.55	65.0500
225.92	64.4500
226.30	64.4000
226.67	64.2000
227.05	65.0500
227.42	64.8000
227.79	64.9500
228.17	64.6500
228.54	64.9500
228.91	65.8500
229.29	63.9500
229.66	64.2500
230.03	64.1000
230.41	65.0000
230.78	64.4500
231.15	66.0500
231.53	64.3500
231.90	64.7500
232.27	64.6000
232.65	64.5500
233.02	64.1000
233.39	65.0000
233.77	64.1000
234.14	63.8500
234.51	65.9000
234.89	65.6000
235.26	65.0500
235.63	63.3000
236.01	63.8500
236.38	65.6000
236.75	66.0000
237.12	64.7500
237.50	64.6500
237.87	64.9000
238.24	65.1500
238.62	64.1500
238.99	63.4500
239.36	64.3000
239.73	65.2000
240.11	64.8500
240.48	65.7500
240.85	65.4500
241.23	64.7500
241.60	64.6000
241.97	64.6500
242.34	65.2500
242.72	65.2000
243.09	65.0000
243.46	64.8500
243.83	65.3500
244.21	65.2000
244.58	64.6500
244.95	65.4500
245.32	65.7500
245.70	64.3000
246.07	65.0500
246.44	65.2000
246.81	64.7000
247.18	64.4500
247.56	65.6500
247.93	66.3500
248.30	64.1500
248.67	64.6500
249.04	66.0000
249.42	65.0500
249.79	65.3500
250.16	64.9500
250.53	64.6000
250.90	65.4000
251.28	65.3000
251.65	64.6000
252.02	65.3500
252.39	64.4500
252.76	66.3500
253.14	65.5000
253.51	65.8500
253.88	65.2500
254.25	63.8500
254.62	66.7000
254.99	64.3000
255.37	67.1500
255.74	65.6500
256.11	65.0000
256.48	65.4000
256.85	65.1500
257.22	64.6000
257.59	66.2000
257.97	66.9000
258.34	65.5500
258.71	65.8000
259.08	65.5000
259.45	65.9500
259.82	64.9000
260.19	65.5000
260.56	64.6000
260.94	65.6500
261.31	65.2000
261.68	64.7500
262.05	64.2000
262.42	64.7000
262.79	66.6000
263.16	66.1000
263.53	64.9000
263.90	65.9500
264.28	65.7000
264.65	65.2500
265.02	65.3500
265.39	65.6000
265.76	65.9500
266.13	64.3500
266.50	64.9000
266.87	65.0500
267.24	64.0500
267.61	65.3500
267.98	66.1000
268.35	65.4500
268.72	65.8000
269.09	65.5500
269.46	65.1500
269.84	65.6000
270.21	65.6000
270.58	64.3500
270.95	66.3500
271.32	65.8000
271.69	65.1500
272.06	65.1500
272.43	64.9000
272.80	65.2000
273.17	65.6500
273.54	64.9000
273.91	65.4500
274.28	66.1000
274.65	65.7500
275.02	65.4500
275.39	66.2500
275.76	65.9500
276.13	65.3500
276.50	65.4500
276.87	65.7500
277.24	66.1500
277.61	66.4000
277.98	65.1000
278.35	64.8500
278.72	66.2000
279.09	64.2500
279.46	65.4000
279.83	64.9500
280.20	65.2500
280.57	65.7000
280.94	65.6000
281.31	66.4000
281.67	65.3500
282.04	65.1000
282.41	65.0500
282.78	64.6500
283.15	65.8500
283.52	65.2000
283.89	66.0500
284.26	64.5000
284.63	67.1500
285.00	66.0000
285.37	66.2500
285.74	66.9000
286.11	66.4000
286.48	66.1500
286.85	65.9000
287.21	65.7500
287.58	66.3000
287.95	65.2000
288.32	66.1000
288.69	65.9000
289.06	65.9500
289.43	66.8500
289.80	65.9000
290.17	65.3500
290.54	64.9000
290.90	66.2500
291.27	65.5000
291.64	66.1000
292.01	66.9000
292.38	65.7000
292.75	67.2500
293.12	66.4000
293.48	65.2500
293.85	65.9500
294.22	65.5500
294.59	65.3500
294.96	66.3000
295.33	66.2000
295.70	66.1000
296.06	65.0500
296.43	65.3000
296.80	65.5000
297.17	66.0000
297.54	65.0500
297.91	65.8500
298.27	66.6500
298.64	66.3000
299.01	65.7000
299.38	65.9500
299.75	65.5000
300.11	65.6500
300.48	65.0000
300.85	65.9500
301.22	65.4000
301.59	65.7000
301.95	65.6000
302.32	65.4500
302.69	66.1000
303.06	66.2500
303.43	65.2500
303.79	65.8500
304.16	65.5500
304.53	65.8500
304.90	65.6000
305.26	66.1000
305.63	65.6500
306.00	66.1000
306.37	66.3500
306.73	66.1000
307.10	65.5500
307.47	65.6500
307.84	65.6500
308.20	65.1000
308.57	66.7500
308.94	65.6500
309.31	65.9500
309.67	65.8000
310.04	66.7500
310.41	66.3000
310.77	66.5000
311.14	65.7500
311.51	65.2000
311.88	65.6500
312.24	66.9500
312.61	65.7500
312.98	67.6000
313.34	65.2500
313.71	66.6500
314.08	66.4500
314.44	66.9000
314.81	66.4500
315.18	65.4000
315.55	66.4500
315.91	66.7000
316.28	65.7500
316.65	65.9000
317.01	65.3500
317.38	66.7000
317.75	65.6500
318.11	66.2500
318.48	65.7000
318.84	65.6500
319.21	66.6500
319.58	65.6500
319.94	66.0000
320.31	66.7500
320.68	65.6500
321.04	65.6500
321.41	66.1000
321.78	66.8000
322.14	66.0000
322.51	66.3500
322.87	68.0000
323.24	66.4000
323.61	66.7500
323.97	66.1500
324.34	67.0000
324.70	66.2500
325.07	67.3000
325.44	65.5500
325.80	65.9000
326.17	65.8000
326.53	66.9500
326.90	65.8000
327.27	66.7000
327.63	67.0500
328.00	66.3500
328.36	66.7500
328.73	65.9000
329.09	65.3500
329.46	66.8500
329.83	66.3500
330.19	66.2000
330.56	65.5500
330.92	65.9000
331.29	65.1500
331.65	66.8000
332.02	66.9000
332.38	67.1000
332.75	67.2000
333.11	66.3500
333.48	67.0000
333.84	67.9000
334.21	66.0500
334.58	65.9500
334.94	66.2000
335.31	67.1000
335.67	67.1000
336.04	66.5000
336.40	66.9000
336.77	66.9500
337.13	67.4500
337.50	66.5000
337.86	65.9500
338.22	65.7500
338.59	67.6500
338.95	66.3000
339.32	66.6500
339.68	66.5000
340.05	67.1000
340.41	66.9500
340.78	66.8000
341.14	66.5500
341.51	65.9000
341.87	66.3500
342.24	66.2000
342.60	66.8000
342.96	67.1000
343.33	67.2000
343.69	67.0000
344.06	67.0000
344.42	66.0000
344.79	65.0500
345.15	66.4000
345.51	67.3000
345.88	66.9500
346.24	67.3500
346.61	67.2500
346.97	67.4500
347.34	66.8000
347.70	67.2000
348.06	67.0000
348.43	66.9500
348.79	67.3000
349.16	67.2500
349.52	66.3500
349.88	67.1500
350.25	67.4000
350.61	67.6500
350.97	65.9000
351.34	66.7500
351.70	67.0000
352.07	66.1000
352.43	67.0000
352.79	68.6000
353.16	66.9500
353.52	65.8500
353.88	67.7000
354.25	68.1500
354.61	67.2500
354.97	67.7500
355.34	66.9000
355.70	67.6500
356.06	67.4000
356.43	67.5000
356.79	66.7000
357.15	67.8000
357.52	67.0000
357.88	65.6500
358.24	66.0000
358.60	67.0000
358.97	68.1000
359.33	67.4500
359.69	68.0500
360.06	68.7500
360.42	67.8500
360.78	67.3500
361.14	67.0500
361.51	68.6500
361.87	68.4000
362.23	68.0000
362.60	68.5000
362.96	68.9500
363.32	68.6500
363.68	67.5500
364.05	66.8500
364.41	67.4000
364.77	67.6500
365.13	67.9500
365.50	68.8000
365.86	68.4000
366.22	68.7500
366.58	69.5000
366.95	68.9500
367.31	68.6000
367.67	68.9000
368.03	68.0000
368.39	69.5000
368.76	69.2500
369.12	69.1500
369.48	69.1500
369.84	69.9000
370.20	69.5500
370.57	70.4500
370.93	70.4000
371.29	70.4500
371.65	71.1500
372.01	71.6500
372.38	73.1500
372.74	70.6500
373.10	71.2500
373.46	71.3000
373.82	71.5500
374.18	71.4500
374.55	71.3000
374.91	71.0500
375.27	72.3500
375.63	73.3500
375.99	72.9500
376.35	72.5500
376.71	73.4500
377.08	73.5500
377.44	73.8000
377.80	73.9500
378.16	72.9000
378.52	74.8500
378.88	74.8500
379.24	74.1500
379.60	74.8000
379.97	75.8500
380.33	76.4000
380.69	76.4000
381.05	77.1000
381.41	77.4000
381.77	76.4000
382.13	77.2500
382.49	78.1500
382.85	78.3000
383.21	79.6500
383.57	77.4500
383.94	80.1000
384.30	80.7500
384.66	81.5000
385.02	80.9000
385.38	82.0000
385.74	81.1000
386.10	83.9500
386.46	85.1500
386.82	84.8500
387.18	84.2000
387.54	84.2000
387.90	85.1500
388.26	85.5500
388.62	86.2500
388.98	85.9000
389.34	87.5500
389.70	88.4000
390.06	86.3000
390.42	88.8000
390.78	89.7000
391.14	90.5000
391.50	90.4000
391.86	92.9000
392.22	93.5000
392.58	93.0000
392.94	91.9000
393.30	92.9000
393.66	93.4500
394.02	95.2000
394.38	93.9500
394.74	95.4500
395.10	94.4500
395.46	99.1000
395.82	98.2000
396.18	98.6500
396.54	101.0500
396.90	104.2500
397.26	102.9500
397.62	103.3000
397.98	106.9000
398.34	103.6500
398.70	105.1000
399.05	103.1500
399.41	104.0000
399.77	107.0500
400.13	110.0500
400.49	110.9000
400.85	113.7500
401.21	109.2500
401.57	115.5500
401.93	114.7500
402.29	113.9500
402.65	117.3500
403.00	117.5500
403.36	120.9000
403.72	119.6500
404.08	126.1000
404.44	120.7500
404.80	123.4000
405.16	126.5500
405.52	130.2000
405.87	131.4000
406.23	133.8000
406.59	127.3000
406.95	128.1000
407.31	131.0000
407.67	132.1500
408.03	131.7000
408.38	138.9000
408.74	143.6000
409.10	144.2000
409.46	138.7000
409.82	142.8000
410.17	143.5000
410.53	140.1000
410.89	145.5500
411.25	140.2000
411.61	144.7000
411.97	150.9500
412.32	149.6500
412.68	154.4000
413.04	151.7500
413.40	139.6000
413.75	148.5500
414.11	154.2000
414.47	153.0000
414.83	162.1000
415.19	158.4500
415.54	153.0000
415.90	158.9500
416.26	159.8000
416.62	164.3000
416.97	155.8000
417.33	165.8500
417.69	168.5500
418.05	165.1000
418.40	158.2500
418.76	166.3000
419.12	176.0500
419.48	172.1000
419.83	181.2000
420.19	163.8000
420.55	168.6500
420.90	181.6500
421.26	176.0500
421.62	172.7500
421.98	183.9500
422.33	186.1000
422.69	189.0500
423.05	194.2000
423.40	176.8000
423.76	174.3500
424.12	190.8000
424.47	190.5500
424.83	189.8500
425.19	191.0000
425.54	188.1500
425.90	195.4000
426.26	204.9000
426.61	205.5000
426.97	180.1000
427.33	202.0000
427.68	201.7000
428.04	212.0000
428.40	223.6000
428.75	228.6500
429.11	211.2000
429.47	227.4500
429.82	225.9000
430.18	226.0500
430.53	216.1500
430.89	218.2000
431.25	226.6000
431.60	231.5500
431.96	228.6500
432.31	225.2000
432.67	239.1000
433.03	242.9500
433.38	235.7500
433.74	243.7000
434.09	238.6500
434.45	230.7500
434.81	229.7500
435.16	246.3000
435.52	230.8500
435.87	226.8500
436.23	231.2500
436.58	237.7500
436.94	248.5000
437.30	248.8500
437.65	259.8500
438.01	252.1500
438.36	256.6500
438.72	254.6000
439.07	251.2500
439.43	255.2500
439.78	270.9000
440.14	280.2000
440.49	261.7000
440.85	262.2000
441.20	273.3000
441.56	267.8000
441.91	291.6000
442.27	274.2500
442.62	274.4500
442.98	281.4500
443.33	275.7500
443.69	279.4000
444.04	273.9500
444.40	266.8500
444.75	294.5000
445.11	293.4000
445.46	303.3000
445.82	299.7000
446.17	281.7000
446.53	300.0000
446.88	327.0000
447.23	280.9500
447.59	283.7000
447.94	282.4000
448.30	306.0500
448.65	297.7000
449.01	314.2500
449.36	311.6500
449.72	337.3500
450.07	347.0000
450.42	337.6500
450.78	324.1000
451.13	339.8500
451.49	327.1500
451.84	315.4500
452.19	325.1500
452.55	341.3000
452.90	342.0000
453.26	360.3500
453.61	374.6000
453.96	323.0000
454.32	357.1000
454.67	358.9000
455.02	336.5000
455.38	349.2000
455.73	350.4000
456.09	376.8000
456.44	377.7000
456.79	367.2500
457.15	370.6500
457.50	356.4000
457.85	370.6000
458.21	362.4000
458.56	382.6500
458.91	378.3000
459.27	360.8000
459.62	368.3500
459.97	373.6500
460.32	385.5500
460.68	389.3000
461.03	384.6500
461.38	397.7500
461.74	431.9000
462.09	419.2000
462.44	400.2500
462.80	394.1500
463.15	398.6000
463.50	403.5500
463.85	432.3500
464.21	415.9500
464.56	438.1000
464.91	412.4500
465.26	425.8500
465.62	423.6500
465.97	450.2000
466.32	448.8000
466.67	450.0000
467.03	451.9000
467.38	463.4000
467.73	470.8000
468.08	479.3000
468.44	482.1000
468.79	487.8500
469.14	459.3500
469.49	485.9000
469.85	502.0500
470.20	541.3500
470.55	540.6500
470.90	542.9000
471.25	522.7000
471.61	538.5500
471.96	549.0500
472.31	562.0000
472.66	558.7500
473.01	579.3000
473.36	592.7500
473.72	581.7000
474.07	607.2000
474.42	611.3500
474.77	610.8500
475.12	627.6500
475.47	644.7500
475.83	649.1500
476.18	650.8000
476.53	645.1000
476.88	679.4000
477.23	684.4500
477.58	678.3000
477.93	698.0000
478.28	690.2000
478.64	706.9000
478.99	725.9000
479.34	734.3000
479.69	746.9000
480.04	768.6500
480.39	771.3500
480.74	759.3000
481.09	802.4000
481.44	805.2000
481.79	806.3500
482.15	810.2000
482.50	827.0000
482.85	826.2500
483.20	855.9500
483.55	855.4000
483.90	870.6000
484.25	870.0500
484.60	872.4000
484.95	890.8000
485.30	897.8500
485.65	908.1000
486.00	919.6000
486.35	908.0000
486.70	921.7500
487.05	955.5500
487.40	953.6500
487.75	962.0500
488.10	972.1000
488.45	966.5500
488.80	973.9000
489.15	996.4000
489.50	1002.0500
489.85	1005.3500
490.20	1009.2500
490.55	1022.3000
490.90	1027.6000
491.25	1038.8500
491.60	1036.3500
491.95	1039.9000
492.30	1051.8000
492.65	1063.4500
493.00	1060.9500
493.35	1064.8500
493.70	1078.5000
494.05	1088.0500
494.40	1106.0000
494.75	1103.3000
495.10	1098.9500
495.45	1106.7500
495.80	1117.2500
496.15	1125.2000
496.50	1121.7000
496.84	1124.4000
497.19	1130.9000
497.54	1149.3500
497.89	1148.7000
498.24	1149.5000
498.59	1167.2000
498.94	1160.3000
499.29	1160.9000
499.64	1168.2000
499.99	1178.8000
500.33	1190.3000
500.68	1186.2000
501.03	1196.2500
501.38	1200.6500
501.73	1217.2500
502.08	1215.4000
502.43	1230.2500
502.77	1232.9500
503.12	1238.4000
503.47	1240.7000
503.82	1253.5000
504.17	1267.7000
504.52	1268.6500
504.86	1275.1000
505.21	1296.9500
505.56	1292.4500
505.91	1294.3000
506.26	1296.4000
506.61	1311.3000
506.95	1314.1000
507.30	1324.1500
507.65	1338.6500
508.00	1340.7500
508.35	1344.8000
508.69	1353.4000
509.04	1366.7500
509.39	1364.3500
509.74	1366.2000
510.08	1378.9500
510.43	1393.8000
510.78	1395.7500
511.13	1401.2500
511.47	1409.6500
511.82	1425.6000
512.17	1420.7000
512.52	1440.7500
512.86	1443.6000
513.21	1455.3500
513.56	1458.7500
513.91	1474.6000
514.25	1475.6500
514.60	1487.8000
514.95	1496.5000
515.30	1498.7500
515.64	1501.1000
515.99	1525.3000
516.34	1526.8000
516.68	1537.2500
517.03	1541.0000
517.38	1549.5000
517.72	1575.7500
518.07	1572.2000
518.42	1575.0000
518.76	1589.0500
519.11	1596.7000
519.46	1612.3500
519.80	1600.3000
520.15	1620.3000
520.50	1627.6500
520.84	1627.3500
521.19	1637.7000
521.54	1645.2500
521.88	1641.4500
522.23	1665.6000
522.58	1658.1000
522.92	1667.8500
523.27	1677.4500
523.61	1679.2000
523.96	1683.2500
524.31	1707.2000
524.65	1718.1500
525.00	1711.6000
525.34	1697.2000
525.69	1705.0500
526.04	1727.9500
526.38	1733.7500
526.73	1736.0500
527.07	1752.4000
527.42	1750.2500
527.76	1759.4500
528.11	1769.7000
528.46	1760.1000
528.80	1762.6500
529.15	1757.8500
529.49	1763.5500
529.84	1774.4500
530.18	1777.0000
530.53	1790.2500
530.87	1788.1500
531.22	1790.9500
531.56	1795.4500
531.91	1804.7500
532.25	1797.6000
532.60	1800.4500
532.94	1813.4500
533.29	1807.7500
533.63	1802.1500
533.98	1805.5000
534.32	1818.5500
534.67	1838.2000
535.01	1848.3500
535.36	1837.5000
535.70	1853.4000
536.05	1857.3000
536.39	1869.6000
536.74	1848.5500
537.08	1841.6000
537.43	1840.0000
537.77	1861.7500
538.12	1877.1000
538.46	1882.9500
538.80	1894.1000
539.15	1877.2000
539.49	1885.9000
539.84	1909.4500
540.18	1903.7500
540.53	1904.3500
540.87	1901.8500
541.21	1920.6000
541.56	1917.1000
541.90	1934.8000
542.25	1920.2000
542.59	1920.3500
542.93	1945.6500
543.28	1933.2000
543.62	1944.9000
543.97	1949.0500
544.31	1952.7000
544.65	1954.2500
545.00	1966.8000
545.34	1977.8500
545.68	1974.7000
546.03	1970.7000
546.37	1991.1500
546.71	1991.7500
547.06	1998.3500
547.40	1999.3000
547.74	2028.2500
548.09	2011.2000
548.43	2017.9500
548.77	2027.5000
549.12	2027.3500
549.46	2025.8000
549.80	2038.1500
550.15	2053.1001
550.49	2054.8501
550.83	2054.1499
551.17	2063.8999
551.52	2068.3501
551.86	2066.3999
552.20	2072.0500
552.55	2097.7500
552.89	2094.8000
553.23	2104.0500
553.57	2112.7500
553.92	2105.8000
554.26	2124.0000
554.60	2115.2500
554.94	2127.7000
555.29	2132.6001
555.63	2140.8000
555.97	2157.0500
556.31	2156.1001
556.66	2166.3999
557.00	2154.8000
557.34	2173.6001
557.68	2186.9500
558.02	2191.0500
558.37	2192.9500
558.71	2195.1001
559.05	2195.1499
559.39	2208.2500
559.73	2217.8000
560.08	2217.1001
560.42	2222.1001
560.76	2224.6001
561.10	2227.1499
561.44	2224.4500
561.78	2248.5500
562.13	2257.7500
562.47	2242.8000
562.81	2265.6499
563.15	2262.3000
563.49	2271.3000
563.83	2285.9500
564.17	2280.1001
564.52	2288.0000
564.86	2298.7500
565.20	2292.1499
565.54	2294.2000
565.88	2293.6001
566.22	2308.9500
566.56	2294.9500
566.90	2311.0500
567.24	2321.0000
567.59	2310.9500
567.93	2318.5000
568.27	2333.2500
568.61	2347.1001
568.95	2329.7500
569.29	2333.0500
569.63	2364.1001
569.97	2349.8999
570.31	2314.4500
570.65	2339.7500
570.99	2347.9500
571.33	2360.5000
571.67	2344.1499
572.01	2350.7500
572.35	2362.2000
572.69	2371.2000
573.03	2374.8000
573.37	2372.3000
573.71	2369.2500
574.05	2351.7000
574.39	2362.1001
574.73	2379.1001
575.07	2361.6001
575.41	2373.4500
575.75	2384.7500
576.09	2398.2000
576.43	2388.6001
576.77	2392.8501
577.11	2371.5000
577.45	2390.6001
577.79	2374.2500
578.13	2395.0000
578.47	2369.1001
578.81	2378.8999
579.15	2382.4500
579.49	2415.4500
579.83	2408.3999
580.17	2411.3000
580.51	2405.6001
580.85	2409.7500
581.19	2404.3999
581.53	2400.2000
581.87	2407.1499
582.20	2411.7000
582.54	2409.8999
582.88	2406.7500
583.22	2392.5500
583.56	2388.1499
583.90	2415.8501
584.24	2414.6001
584.58	2411.0500
584.92	2429.4500
585.25	2422.8501
585.59	2417.6001
585.93	2437.4500
586.27	2437.6499
586.61	2410.3501
586.95	2433.5000
587.29	2441.9500
587.62	2423.0500
587.96	2435.7500
588.30	2445.4500
588.64	2435.0500
588.98	2431.7500
589.31	2449.4500
589.65	2440.0500
589.99	2428.1499
590.33	2449.3999
590.67	2451.2500
591.01	2446.7500
591.34	2463.3000
591.68	2459.3000
592.02	2472.4500
592.36	2454.8000
592.69	2453.4500
593.03	2464.5500
593.37	2472.2000
593.71	2469.0500
594.04	2469.3501
594.38	2466.0500
594.72	2486.6001
595.06	2478.4500
595.39	2477.1001
595.73	2488.5000
596.07	2500.5000
596.41	2494.6001
596.74	2495.2500
597.08	2501.8000
597.42	2502.8999
597.76	2488.6499
598.09	2508.3999
598.43	2495.6001
598.77	2506.3000
599.10	2521.8501
599.44	2515.6001
599.78	2514.5000
600.11	2523.5000
600.45	2526.6499
600.79	2526.8000
601.12	2520.3501
601.46	2537.6499
601.80	2547.8999
602.13	2530.7000
602.47	2545.1001
602.81	2529.7000
603.14	2536.3999
603.48	2554.3000
603.82	2543.0500
604.15	2543.0500
604.49	2555.7500
604.82	2553.3999
605.16	2556.1001
605.50	2546.7000
605.83	2574.8501
606.17	2570.0000
606.50	2571.4500
606.84	2562.3000
607.18	2566.7000
607.51	2567.4500
607.85	2574.7500
608.18	2584.5500
608.52	2581.5000
608.86	2577.8000
609.19	2589.2000
609.53	2569.6001
609.86	2598.1001
610.20	2587.1499
610.53	2582.6499
610.87	2571.0000
611.20	2613.7500
611.54	2575.1499
611.87	2585.6001
612.21	2598.4500
612.54	2585.6499
612.88	2591.7500
613.21	2597.2000
613.55	2598.2000
613.88	2584.3999
614.22	2592.8999
614.55	2576.6499
614.89	2574.4500
615.22	2582.2500
615.56	2583.7500
615.89	2594.8501
616.23	2605.7500
616.56	2567.2500
616.90	2592.6499
617.23	2579.4500
617.57	2602.5000
617.90	2594.8999
618.24	2593.9500
618.57	2597.8999
618.90	2588.2000
619.24	2580.3000
619.57	2587.8999
619.91	2606.2500
620.24	2562.8999
620.58	2590.1499
620.91	2584.0000
621.24	2588.7500
621.58	2601.7000
621.91	2577.8999
622.25	2587.0000
622.58	2582.9500
622.91	2605.8999
623.25	2567.0500
623.58	2575.8999
623.91	2578.7500
624.25	2587.1001
624.58	2582.6499
624.92	2585.8501
625.25	2588.2500
625.58	2566.1001
625.92	2594.4500
626.25	2579.5000
626.58	2594.8000
626.92	2575.2000
627.25	2593.0500
627.58	2578.1499
627.91	2586.8501
628.25	2582.6001
628.58	2587.3000
628.91	2567.3501
629.25	2577.8501
629.58	2566.7500
629.91	2578.8501
630.25	2587.8000
630.58	2574.8999
630.91	2574.7000
631.24	2583.2000
631.58	2580.7000
631.91	2588.0500
632.24	2554.1499
632.57	2562.8000
632.91	2567.8000
633.24	2554.6001
633.57	2565.4500
633.90	2564.5500
634.24	2560.7000
634.57	2566.8501
634.90	2569.7500
635.23	2536.7000
635.56	2544.1499
635.90	2547.3501
636.23	2549.5000
636.56	2549.8999
636.89	2552.3501
637.22	2555.3000
637.56	2549.6499
637.89	2528.2500
638.22	2543.8000
638.55	2547.3999
638.88	2515.5500
639.21	2532.6001
639.55	2518.3999
639.88	2525.2000
640.21	2533.2000
640.54	2528.6001
640.87	2509.8999
641.20	2515.8501
641.53	2534.2500
641.87	2518.1001
642.20	2512.1001
642.53	2511.3000
642.86	2520.5000
643.19	2508.5500
643.52	2512.8501
643.85	2513.5000
644.18	2505.8501
644.51	2500.3999
644.84	2506.8000
645.18	2498.7000
645.51	2496.5500
645.84	2502.1001
646.17	2494.5000
646.50	2507.6499
646.83	2510.8000
647.16	2477.6499
647.49	2494.3000
647.82	2492.5500
648.15	2498.5000
648.48	2500.1499
648.81	2495.7500
649.14	2483.4500
649.47	2494.4500
649.80	2480.3501
650.13	2477.8999
650.46	2490.5500
650.79	2484.1499
651.12	2498.8999
651.45	2489.0500
651.78	2467.3000
652.11	2480.4500
652.44	2472.6001
652.77	2480.8000
653.10	2490.8501
653.43	2484.9500
653.76	2477.6499
654.09	2459.1499
654.42	2477.0000
654.75	2480.9500
655.08	2457.5000
655.41	2464.0500
655.74	2440.6499
656.07	2468.0500
656.39	2463.3000
656.72	2463.3999
657.05	2454.7500
657.38	2473.1499
657.71	2473.3501
658.04	2457.8000
658.37	2458.7000
658.70	2467.4500
659.03	2449.5500
659.36	2454.1499
659.68	2455.2500
660.01	2446.1001
660.34	2454.3000
660.67	2453.1499
661.00	2462.7500
661.33	2441.1001
661.66	2433.5500
661.98	2448.0500
662.31	2445.5000
662.64	2439.0500
662.97	2441.5000
663.30	2426.0500
663.63	2436.9500
663.95	2415.4500
664.28	2431.1001
664.61	2424.2000
664.94	2421.9500
665.27	2438.2500
665.59	2419.5500
665.92	2431.8000
666.25	2409.1001
666.58	2398.5000
666.91	2434.7500
667.23	2411.0000
667.56	2399.8999
667.89	2395.5500
668.22	2400.6499
668.54	2405.6499
668.87	2410.6001
669.20	2401.0000
669.53	2405.2500
669.85	2397.3999
670.18	2385.6001
670.51	2381.9500
670.83	2375.0500
671.16	2391.1499
671.49	2388.3000
671.82	2380.6001
672.14	2362.2000
672.47	2364.7500
672.80	2367.8501
673.12	2371.2000
673.45	2379.5500
673.78	2344.6001
674.10	2363.3000
674.43	2346.3999
674.76	2341.6001
675.08	2354.3000
675.41	2330.0500
675.74	2337.5000
676.06	2336.5500
676.39	2323.1001
676.72	2327.2500
677.04	2328.3999
677.37	2323.0000
677.69	2318.1499
678.02	2304.6001
678.35	2302.3501
678.67	2274.3000
679.00	2304.8501
679.32	2299.1499
679.65	2291.6001
679.98	2298.8000
680.30	2281.7500
680.63	2275.0500
680.95	2262.2000
681.28	2271.1499
681.60	2255.3000
681.93	2257.4500
682.26	2247.8999
682.58	2250.6499
682.91	2253.1001
683.23	2230.6001
683.56	2226.1499
683.88	2237.6499
684.21	2216.9500
684.53	2229.5000
684.86	2233.1001
685.18	2220.6499
685.51	2219.6001
685.83	2209.8000
686.16	2185.0500
686.48	2184.6001
686.81	2201.7500
687.13	2195.0500
687.46	2182.8501
687.78	2188.5000
688.11	2163.2000
688.43	2161.9500
688.76	2161.4500
689.08	2162.2000
689.41	2148.8501
689.73	2136.5000
690.05	2141.5000
690.38	2144.4500
690.70	2136.9500
691.03	2121.2000
691.35	2119.6499
691.68	2091.8501
692.00	2103.3501
692.32	2118.3501
692.65	2107.4500
692.97	2102.5500
693.29	2103.3000
693.62	2077.9500
693.94	2095.8999
694.27	2077.6001
694.59	2051.3501
694.91	2068.7000
695.24	2074.8000
695.56	2047.2000
695.88	2048.7000
696.21	2021.1000
696.53	2008.2000
696.85	2035.8000
697.18	2035.3500
697.50	2025.7500
697.82	2036.7500
698.15	2026.4000
698.47	2013.6000
698.79	2019.5500
699.12	2020.9500
699.44	1985.9000
699.76	1980.7000
700.09	1989.6500
700.41	1985.0500
700.73	1972.5500
701.05	1985.6500
701.38	1965.8000
701.70	1977.5500
702.02	1971.6000
702.34	1959.2000
702.67	1966.4500
702.99	1960.0000
703.31	1949.3500
703.63	1949.5000
703.96	1935.1000
704.28	1931.8000
704.60	1926.1500
704.92	1936.3500
705.25	1917.2500
705.57	1919.6000
705.89	1910.7000
706.21	1909.8500
706.53	1909.0500
706.86	1905.8000
707.18	1899.1500
707.50	1913.2500
707.82	1886.0500
708.14	1898.0500
708.46	1903.3000
708.79	1876.6500
709.11	1890.1000
709.43	1870.4000
709.75	1865.6000
710.07	1865.4000
710.39	1869.9500
710.71	1854.1000
711.04	1854.5000
711.36	1849.0500
711.68	1848.1000
712.00	1846.0500
712.32	1845.2500
712.64	1826.1500
712.96	1823.9000
713.28	1809.7500
713.60	1830.3500
713.92	1811.1500
714.24	1821.2000
714.57	1815.6000
714.89	1809.7500
715.21	1802.0500
715.53	1786.0000
715.85	1792.2000
716.17	1788.5000
716.49	1790.5000
716.81	1783.4000
717.13	1790.0500
717.45	1770.2000
717.77	1759.8000
718.09	1758.2500
718.41	1764.9000
718.73	1752.5500
719.05	1747.4500
719.37	1724.7500
719.69	1739.0000
720.01	1736.1500
720.33	1717.8500
720.65	1718.1500
720.97	1720.9000
721.29	1698.1000
721.61	1710.2000
721.93	1708.3000
722.25	1692.7000
722.57	1689.7000
722.89	1686.2000
723.21	1686.3500
723.52	1674.9500
723.84	1663.9500
724.16	1680.9500
724.48	1673.0500
724.80	1669.6000
725.12	1664.2000
725.44	1666.9500
725.76	1656.8000
726.08	1656.6000
726.40	1641.8000
726.72	1649.0500
727.03	1656.7000
727.35	1648.6000
727.67	1635.5000
727.99	1637.6000
728.31	1635.3000
728.63	1627.5500
728.95	1628.7000
729.26	1618.6000
729.58	1616.3000
729.90	1618.8500
730.22	1595.1000
730.54	1594.8500
730.86	1605.2500
731.17	1612.7500
731.49	1596.4500
731.81	1602.9000
732.13	1602.5500
732.45	1577.2500
732.76	1579.4000
733.08	1583.9500
733.40	1577.2500
733.72	1571.9500
734.03	1564.7500
734.35	1565.3000
734.67	1576.7500
734.99	1561.3500
735.30	1565.1000
735.62	1556.0000
735.94	1552.4500
736.26	1542.4000
736.57	1538.8500
736.89	1546.7500
737.21	1523.5000
737.53	1519.6000
737.84	1518.8500
738.16	1503.4500
738.48	1501.9500
738.79	1511.1500
739.11	1497.3500
739.43	1490.6000
739.74	1489.3000
740.06	1477.2000
740.38	1471.9500
740.69	1466.7500
741.01	1461.4500
741.33	1449.6500
741.64	1448.3000
741.96	1442.6000
742.28	1441.0000
742.59	1420.0000
742.91	1421.8000
743.23	1412.7000
743.54	1423.2500
743.86	1408.7000
744.17	1398.7000
744.49	1401.5500
744.81	1393.8500
745.12	1387.1000
745.44	1378.1000
745.75	1379.1000
746.07	1369.5500
746.38	1367.1500
746.70	1362.8500
747.02	1367.1000
747.33	1352.2500
747.65	1357.0000
747.96	1344.5000
748.28	1344.4500
748.59	1336.2000
748.91	1328.9500
749.22	1333.6000
749.54	1326.3000
749.85	1331.9000
750.17	1327.6000
750.48	1313.8000
750.80	1317.9000
751.11	1318.4500
751.43	1313.1500
751.74	1310.5000
752.06	1309.2500
752.37	1302.3000
752.69	1304.8500
753.00	1296.7500
753.32	1301.1500
753.63	1297.4000
753.95	1293.3000
754.26	1279.6000
754.58	1284.5000
754.89	1285.9000
755.20	1286.6000
755.52	1281.4500
755.83	1277.0000
756.15	1278.9000
756.46	1269.4500
756.78	1261.3500
757.09	1261.7000
757.40	1260.3500
757.72	1257.1500
758.03	1250.4500
758.34	1254.2000
758.66	1254.4000
758.97	1253.6500
759.29	1248.7500
759.60	1244.5500
759.91	1233.7000
760.23	1235.4500
760.54	1242.3000
760.85	1233.6500
761.17	1230.3500
761.48	1226.7500
761.79	1212.5000
762.11	1211.6000
762.42	1211.0500
762.73	1218.5500
763.05	1214.3000
763.36	1216.0500
763.67	1213.2000
763.98	1197.2500
764.30	1177.9500
764.61	1187.8500
764.92	1189.3000
765.23	1184.8500
765.55	1180.0500
765.86	1170.9500
766.17	1178.7500
766.48	1172.9500
766.80	1154.1500
767.11	1167.0000
767.42	1142.9000
767.73	1143.9500
768.05	1150.5000
768.36	1152.5000
768.67	1155.0000
768.98	1145.4500
769.29	1153.3500
769.61	1138.8000
769.92	1115.9000
770.23	1120.9500
770.54	1099.4500
770.85	1115.3000
771.17	1115.3500
771.48	1111.6000
771.79	1106.8500
772.10	1098.6000
772.41	1097.7000
772.72	1086.0500
773.03	1078.0500
773.35	1075.8500
773.66	1062.4000
773.97	1067.7000
774.28	1061.4500
774.59	1049.8000
774.90	1058.8000
775.21	1060.5000
775.52	1053.4500
775.83	1043.6000
776.15	1033.9500
776.46	1029.2500
776.77	1022.6500
777.08	1025.6000
777.39	1027.7000
777.70	1011.1000
778.01	1015.6500
778.32	1016.2000
778.63	1018.0000
778.94	1009.8500
779.25	1001.9000
779.56	992.1000
779.87	988.3500
780.18	976.6500
780.49	974.1000
780.80	978.6500
781.11	967.3000
781.42	958.6500
781.73	960.4500
782.04	943.8500
782.35	936.8000
782.66	936.9000
782.97	936.6500
783.28	942.0000
783.59	934.2500
783.90	933.6500
784.21	923.2500
784.52	912.7500
784.83	908.8000
785.14	907.1500
785.45	901.8500
785.76	893.6500
786.06	895.9500
786.37	901.6000
786.68	892.4500
786.99	887.1500
787.30	882.3500
787.61	883.4500
787.92	873.1500
788.23	860.1500
788.54	870.8000
788.84	863.4000
789.15	862.3000
789.46	857.2000
789.77	844.9500
790.08	845.4500
790.39	835.7000
790.70	846.3500
791.00	840.3000
791.31	824.0500
791.62	828.3500
791.93	820.1500
792.24	818.9500
792.54	811.8000
792.85	804.1500
793.16	806.0500
793.47	799.0500
793.78	800.0000
794.08	795.0000
794.39	784.5000
794.70	789.2000
795.01	780.6000
795.31	777.0000
795.62	771.0500
795.93	776.5500
796.24	774.8000
796.54	765.3500
796.85	769.2000
797.16	756.1500
797.47	748.5000
797.77	750.0000
798.08	746.2500
798.39	748.8500
798.69	744.7000
799.00	735.6000
799.31	735.8500
799.62	729.5000
799.92	727.2500
800.23	725.8500
800.54	720.1500
800.84	715.3000
801.15	709.7500
801.46	709.4500
801.76	708.9000
802.07	696.7500
802.37	695.3000
802.68	693.8000
802.99	696.9000
803.29	686.1000
803.60	678.1500
803.91	676.0500
804.21	674.4500
804.52	678.5000
804.82	675.0500
805.13	676.1500
805.44	667.8500
805.74	661.2000
806.05	665.7000
806.35	658.5500
806.66	651.4500
806.96	655.7500
807.27	642.0000
807.57	644.5000
807.88	645.0000
808.19	636.1000
808.49	638.8500
808.80	631.0500
809.10	628.5000
809.41	628.7500
809.71	619.6000
810.02	621.4000
810.32	615.4000
810.63	617.3000
810.93	618.3500
811.24	610.0000
811.54	615.0500
811.85	609.6500
812.15	601.4500
812.45	598.3500
812.76	598.1500
813.06	591.4500
813.37	587.4500
813.67	592.1000
813.98	585.7000
814.28	580.5000
814.58	581.0000
814.89	574.9500
815.19	573.4000
815.50	571.4000
815.80	568.6000
816.11	563.2500
816.41	566.0000
816.71	565.5500
817.02	562.8000
817.32	556.4000
817.62	552.0000
817.93	555.8000
818.23	545.0000
818.53	548.7500
818.84	550.6000
819.14	541.3500
819.44	542.9000
819.75	539.9000
820.05	532.3000
820.35	528.2500
820.66	524.8000
820.96	530.0500
821.26	524.9000
821.57	524.5500
821.87	519.1500
822.17	520.5500
822.48	518.7500
822.78	515.2000
823.08	506.9500
823.38	512.5500
823.69	508.3500
823.99	507.4000
824.29	506.4500
824.59	495.0500
824.90	501.5000
825.20	497.3500
825.50	493.8000
825.80	491.7000
826.10	493.8000
826.41	486.5000
826.71	486.5500
827.01	484.9500
827.31	488.6500
827.61	485.6500
827.92	485.0500
828.22	480.3000
828.52	477.8000
828.82	477.7000
829.12	471.8000
829.42	470.7500
829.73	465.9500
830.03	466.5500
830.33	465.3000
830.63	460.9500
830.93	460.9000
831.23	456.2500
831.53	459.3500
831.83	453.0500
832.14	449.2500
832.44	450.8000
832.74	447.2500
833.04	448.1000
833.34	448.8500
833.64	445.2500
833.94	441.8000
834.24	441.9000
834.54	441.8500
834.84	438.7500
835.14	434.9000
835.44	433.6000
835.74	433.5000
836.04	428.1500
836.34	431.0000
836.64	430.7000
836.95	429.1500
837.25	421.6000
837.55	425.6000
837.85	422.7500
838.15	422.0500
838.45	419.1500
838.74	418.0000
839.04	411.1500
839.34	414.0500
839.64	408.8000
839.94	405.9500
840.24	405.5000
840.54	408.2500
840.84	406.4000
841.14	401.0500
841.44	403.2500
841.74	402.3500
842.04	396.8000
842.34	399.8500
842.64	392.5000
842.94	397.9000
843.24	394.8500
843.53	393.4000
843.83	389.1000
844.13	384.4500
844.43	383.0000
844.73	386.4000
845.03	382.7500
845.33	380.8000
845.63	380.8000
845.92	375.5500
846.22	376.7500
846.52	374.0000
846.82	375.2000
847.12	368.7000
847.42	371.3000
847.71	367.7500
848.01	368.1000
848.31	364.2000
848.61	365.1500
848.91	363.1000
849.20	363.5500
849.50	359.6500
849.80	358.4500
850.10	356.5000
850.39	354.6000
850.69	355.6000
850.99	351.4500
851.29	351.9500
851.59	349.3000
851.88	348.4500
852.18	349.1000
852.48	347.5000
852.77	343.3000
853.07	343.2500
853.37	339.8000
853.67	341.3500
853.96	336.7000
854.26	338.6500
854.56	335.3000
854.85	335.2500
855.15	334.8000
855.45	335.1000
855.74	330.1000
856.04	328.9000
856.34	327.4500
856.63	328.5000
856.93	324.2500
857.23	326.0000
857.52	320.2500
857.82	317.9000
858.11	320.0500
858.41	317.9500
858.71	315.0000
859.00	313.0500
859.30	313.7500
859.59	312.2500
859.89	310.6000
860.19	306.6500
860.48	306.6500
860.78	307.0000
861.07	305.5000
861.37	303.1500
861.66	304.4000
861.96	301.8500
862.26	296.8500
862.55	296.6000
862.85	294.8500
863.14	293.8000
863.44	293.8500
863.73	293.4500
864.03	289.4500
864.32	291.5500
864.62	290.4500
864.91	286.6500
865.21	285.9000
865.50	283.7500
865.80	282.5500
866.09	283.3000
866.39	280.0500
866.68	282.1000
866.97	277.0500
867.27	277.4000
867.56	272.2000
867.86	272.7000
868.15	271.1000
868.45	267.6500
868.74	267.2000
869.03	267.7000
869.33	269.5500
869.62	265.0500
869.92	263.9000
870.21	258.3000
870.50	258.9000
870.80	258.9500
871.09	257.5500
871.39	256.1000
871.68	256.1500
871.97	254.0000
872.27	253.3000
872.56	248.8000
872.85	250.3000
873.15	248.4500
873.44	243.8500
873.73	244.8500
874.03	244.5500
874.32	243.4500
874.61	241.3000
874.90	241.2000
875.20	239.3000
875.49	235.6500
875.78	237.2500
>>>>>End Spectral Data<<<<<
