OOIBase32 Version 1.0.0.8 Data File
++++++++++++++++++++++++++++++++++++
Date: Sunday, January 20, 1980, 01:19:10
User: Valued Ocean Optics Customer
Spectrometer Serial Number: Unknown
Spectrometer Channel: Master
Integration Time (msec): 5
Spectra Averaged: 20
Boxcar Smoothing: 0
Correct for Electrical Dark: Disabled
Time Normalized: Disabled
Dual-beam Reference: Disabled
Reference Channel: Master
>>>>>Begin Spectral Data<<<<<
179.00	0.0000
179.38	0.0000
179.75	59.4500
180.13	59.9000
180.51	60.8500
180.88	61.3000
181.26	60.4500
181.64	60.3000
182.02	61.1500
182.39	61.3000
182.77	60.8000
183.15	59.9000
183.52	59.5000
183.90	60.3000
184.28	60.7000
184.65	59.7000
185.03	60.5500
185.41	60.2500
185.78	61.0000
186.16	60.5500
186.53	60.6500
186.91	60.6500
187.29	61.5000
187.66	60.7500
188.04	61.9000
188.42	62.8500
188.79	63.5000
189.17	64.7000
189.55	64.7500
189.92	64.3000
190.30	64.1000
190.67	64.7000
191.05	63.4500
191.43	64.4000
191.80	63.7500
192.18	64.9500
192.56	64.9500
192.93	64.4500
193.31	64.5000
193.68	63.9000
194.06	64.3000
194.44	64.2500
194.81	63.6000
195.19	64.2000
195.56	63.6000
195.94	63.4500
196.32	64.2000
196.69	63.8500
197.07	63.5500
197.44	64.2000
197.82	63.5500
198.19	64.8500
198.57	64.0500
198.95	65.1000
199.32	64.8000
199.70	63.5500
200.07	63.3000
200.45	64.1500
200.82	64.4000
201.20	64.1500
201.57	62.9500
201.95	64.0500
202.33	63.8500
202.70	63.4000
203.08	64.3000
203.45	65.5500
203.83	64.1000
204.20	64.6000
204.58	64.4000
204.95	64.0000
205.33	64.8000
205.70	64.6000
206.08	64.5500
206.45	64.3500
206.83	64.6000
207.20	64.4000
207.58	64.4500
207.95	65.2500
208.33	64.0500
208.70	64.5000
209.08	64.8000
209.45	63.0000
209.83	64.4000
210.20	65.0500
210.58	64.6000
210.95	64.6500
211.33	64.3500
211.70	64.4000
212.08	63.1500
212.45	64.2500
212.83	64.4000
213.20	64.9000
213.58	65.0000
213.95	65.1000
214.33	64.8000
214.70	64.7000
215.07	63.8500
215.45	63.5000
215.82	64.5500
216.20	63.3000
216.57	63.7000
216.95	65.1000
217.32	65.6500
217.70	64.8000
218.07	64.6000
218.44	64.6500
218.82	64.7000
219.19	64.3500
219.57	64.8000
219.94	64.4500
220.32	63.4000
220.69	64.3500
221.06	64.4000
221.44	64.7500
221.81	64.7500
222.19	64.9000
222.56	64.1500
222.93	63.5000
223.31	63.8500
223.68	65.6000
224.06	64.4000
224.43	65.0500
224.80	65.2500
225.18	64.4500
225.55	63.9000
225.92	64.0000
226.30	63.8000
226.67	65.2000
227.05	65.5000
227.42	63.8500
227.79	64.6000
228.17	64.4000
228.54	63.4000
228.91	65.2000
229.29	63.7000
229.66	64.8500
230.03	64.7000
230.41	65.5500
230.78	65.6500
231.15	64.4500
231.53	65.2000
231.90	65.8000
232.27	64.5500
232.65	65.5000
233.02	64.8500
233.39	64.4500
233.77	64.7000
234.14	64.9500
234.51	65.0000
234.89	64.1000
235.26	65.9500
235.63	64.4000
236.01	64.8000
236.38	64.0500
236.75	64.2000
237.12	64.3000
237.50	65.5000
237.87	65.0000
238.24	65.1000
238.62	65.6000
238.99	65.8500
239.36	64.9500
239.73	64.4500
240.11	64.4000
240.48	65.2500
240.85	65.3000
241.23	64.6000
241.60	65.7000
241.97	65.2000
242.34	66.0000
242.72	65.4500
243.09	64.7000
243.46	64.7500
243.83	64.3000
244.21	64.7500
244.58	64.9500
244.95	65.0500
245.32	65.4000
245.70	65.5500
246.07	65.6000
246.44	64.6500
246.81	65.5500
247.18	64.9000
247.56	65.9500
247.93	66.3000
248.30	65.1000
248.67	63.6500
249.04	65.1500
249.42	65.5500
249.79	65.7000
250.16	64.9000
250.53	65.9500
250.90	64.6000
251.28	64.5500
251.65	64.8000
252.02	65.1000
252.39	65.2500
252.76	65.5000
253.14	65.8000
253.51	65.1500
253.88	65.2000
254.25	64.9000
254.62	65.0000
254.99	65.3000
255.37	66.0000
255.74	64.4500
256.11	65.4500
256.48	65.4000
256.85	65.1000
257.22	65.0000
257.59	65.5000
257.97	65.0000
258.34	65.6500
258.71	66.1000
259.08	65.6500
259.45	65.7500
259.82	65.8500
260.19	65.5000
260.56	63.8500
260.94	64.8000
261.31	65.6000
261.68	64.7500
262.05	65.3000
262.42	64.3500
262.79	65.2500
263.16	66.1500
263.53	65.6500
263.90	64.9000
264.28	63.6000
264.65	64.4500
265.02	64.5500
265.39	65.5000
265.76	65.9500
266.13	65.9500
266.50	65.3500
266.87	65.2500
267.24	64.9500
267.61	65.6000
267.98	65.8000
268.35	66.1500
268.72	65.7000
269.09	65.2500
269.46	64.6500
269.84	64.9000
270.21	65.7500
270.58	66.3000
270.95	65.3000
271.32	65.4000
271.69	65.9500
272.06	65.3500
272.43	64.6500
272.80	65.7500
273.17	65.1500
273.54	66.7000
273.91	65.7000
274.28	65.9500
274.65	65.6500
275.02	65.9500
275.39	65.2000
275.76	65.9000
276.13	66.5500
276.50	66.1000
276.87	65.9500
277.24	64.5500
277.61	64.7500
277.98	66.0500
278.35	65.8000
278.72	66.1500
279.09	64.8500
279.46	66.9000
279.83	65.1500
280.20	64.9500
280.57	64.8000
280.94	66.1000
281.31	65.3000
281.67	65.0000
282.04	64.9000
282.41	66.5000
282.78	66.2500
283.15	64.8500
283.52	66.5000
283.89	66.6000
284.26	65.4500
284.63	65.9500
285.00	66.3000
285.37	65.1000
285.74	65.0500
286.11	65.8000
286.48	66.0000
286.85	66.8500
287.21	65.9500
287.58	66.4000
287.95	66.5000
288.32	65.9500
288.69	65.8000
289.06	65.3000
289.43	66.3500
289.80	65.8500
290.17	65.1500
290.54	66.0000
290.90	65.9500
291.27	65.7500
291.64	64.8000
292.01	66.1000
292.38	66.9500
292.75	65.4500
293.12	66.2000
293.48	66.0000
293.85	66.0500
294.22	66.5000
294.59	66.4000
294.96	65.1000
295.33	65.8000
295.70	65.3500
296.06	67.3000
296.43	65.4000
296.80	65.1000
297.17	65.2500
297.54	65.5000
297.91	65.5500
298.27	65.6000
298.64	66.2000
299.01	65.0500
299.38	66.7500
299.75	65.2500
300.11	65.1500
300.48	66.2000
300.85	66.2500
301.22	65.1000
301.59	66.1500
301.95	66.6500
302.32	65.5000
302.69	66.4000
303.06	66.5500
303.43	66.4000
303.79	65.3000
304.16	64.5000
304.53	65.8000
304.90	66.1500
305.26	66.0000
305.63	65.8500
306.00	65.3500
306.37	66.9000
306.73	65.6000
307.10	66.6500
307.47	65.4000
307.84	66.3000
308.20	65.1500
308.57	66.3500
308.94	65.7000
309.31	66.2000
309.67	64.8000
310.04	65.4000
310.41	65.7500
310.77	66.4000
311.14	65.7500
311.51	65.7500
311.88	66.6000
312.24	66.4500
312.61	66.6500
312.98	66.4000
313.34	66.5000
313.71	64.8500
314.08	66.5000
314.44	66.2500
314.81	66.9500
315.18	66.3500
315.55	65.5500
315.91	66.0500
316.28	66.7000
316.65	65.1000
317.01	66.2500
317.38	66.9500
317.75	67.0000
318.11	67.2000
318.48	66.5000
318.84	66.2500
319.21	66.6000
319.58	66.2000
319.94	66.9000
320.31	66.5000
320.68	67.4500
321.04	65.6500
321.41	66.8500
321.78	66.4000
322.14	65.6000
322.51	65.3500
322.87	65.3000
323.24	66.1500
323.61	67.1500
323.97	66.8500
324.34	66.0000
324.70	66.4500
325.07	66.7000
325.44	67.3500
325.80	66.6000
326.17	66.1000
326.53	66.9000
326.90	65.9500
327.27	66.8000
327.63	66.4500
328.00	65.9000
328.36	66.7500
328.73	66.1000
329.09	66.8000
329.46	66.7000
329.83	66.6500
330.19	67.3000
330.56	66.3000
330.92	66.5000
331.29	65.4000
331.65	66.5000
332.02	67.1500
332.38	66.5500
332.75	67.0000
333.11	67.2000
333.48	65.8000
333.84	67.8500
334.21	66.7000
334.58	65.9500
334.94	66.7000
335.31	67.3000
335.67	65.9000
336.04	67.1500
336.40	66.6500
336.77	67.1000
337.13	65.9500
337.50	66.0500
337.86	66.8000
338.22	67.3500
338.59	67.0000
338.95	68.1000
339.32	67.5500
339.68	66.6500
340.05	66.9500
340.41	67.4000
340.78	67.0500
341.14	66.4000
341.51	66.8000
341.87	66.5000
342.24	66.4500
342.60	67.8000
342.96	67.3000
343.33	67.0000
343.69	67.3000
344.06	68.2500
344.42	66.7000
344.79	67.2000
345.15	66.9500
345.51	67.6000
345.88	66.8000
346.24	66.8500
346.61	66.9500
346.97	67.0500
347.34	68.0500
347.70	68.1000
348.06	66.4500
348.43	67.1500
348.79	68.1500
349.16	67.1000
349.52	68.3500
349.88	67.1000
350.25	67.0500
350.61	67.5000
350.97	66.9500
351.34	67.2500
351.70	67.0000
352.07	67.3500
352.43	66.8500
352.79	67.2500
353.16	67.2500
353.52	67.0500
353.88	67.3000
354.25	68.1500
354.61	67.2000
354.97	66.0500
355.34	66.9500
355.70	69.3000
356.06	67.0500
356.43	67.9500
356.79	67.6500
357.15	67.8500
357.52	67.2500
357.88	67.8000
358.24	67.3000
358.60	67.2000
358.97	66.9000
359.33	67.9000
359.69	68.1500
360.06	68.1500
360.42	67.8000
360.78	67.3000
361.14	66.8000
361.51	67.2500
361.87	68.4000
362.23	66.9500
362.60	67.4000
362.96	67.3000
363.32	68.3500
363.68	68.3500
364.05	67.5500
364.41	68.0500
364.77	67.4000
365.13	67.4000
365.50	67.1500
365.86	68.2500
366.22	67.3500
366.58	68.4500
366.95	68.3500
367.31	69.4000
367.67	67.8000
368.03	68.6500
368.39	68.3000
368.76	68.1000
369.12	67.7000
369.48	66.5500
369.84	68.4000
370.20	68.8000
370.57	67.5500
370.93	69.3000
371.29	68.3500
371.65	68.9500
372.01	68.4500
372.38	68.6000
372.74	68.3500
373.10	69.7000
373.46	69.6000
373.82	68.7000
374.18	70.1000
374.55	68.8000
374.91	69.2500
375.27	69.2000
375.63	70.4000
375.99	70.1000
376.35	69.3500
376.71	69.5500
377.08	70.8000
377.44	71.2000
377.80	70.0000
378.16	71.2000
378.52	70.8500
378.88	72.0500
379.24	71.6000
379.60	72.2500
379.97	73.5000
380.33	73.1000
380.69	74.1500
381.05	74.9000
381.41	75.0500
381.77	75.2000
382.13	77.5000
382.49	77.7500
382.85	77.1000
383.21	79.1000
383.57	78.1000
383.94	81.1000
384.30	81.0500
384.66	83.8000
385.02	82.2500
385.38	82.5000
385.74	83.4500
386.10	84.6500
386.46	85.8500
386.82	87.2500
387.18	87.6500
387.54	89.0500
387.90	88.7000
388.26	91.0000
388.62	92.5000
388.98	91.1000
389.34	93.2500
389.70	93.3000
390.06	92.3000
390.42	94.1500
390.78	97.9000
391.14	98.2000
391.50	97.4500
391.86	99.5000
392.22	101.6500
392.58	100.3500
392.94	97.0500
393.30	100.9500
393.66	103.2000
394.02	105.0000
394.38	101.8000
394.74	105.3000
395.10	103.8500
395.46	107.6500
395.82	106.4500
396.18	106.8500
396.54	111.2000
396.90	113.6500
397.26	111.7000
397.62	112.1000
397.98	116.2500
398.34	112.3000
398.70	114.5500
399.05	111.8000
399.41	112.4000
399.77	115.4500
400.13	119.2500
400.49	120.9500
400.85	123.0000
401.21	118.4000
401.57	125.8500
401.93	124.6500
402.29	123.3500
402.65	124.5000
403.00	128.3500
403.36	130.9500
403.72	128.1000
404.08	136.5000
404.44	129.3000
404.80	132.9000
405.16	136.4000
405.52	140.2000
405.87	140.8500
406.23	142.6000
406.59	135.6500
406.95	136.5500
407.31	139.8000
407.67	141.3000
408.03	141.8000
408.38	147.1500
408.74	152.5500
409.10	153.1500
409.46	147.6500
409.82	153.1500
410.17	150.5000
410.53	147.2500
410.89	154.6500
411.25	144.4500
411.61	152.3500
411.97	161.5500
412.32	157.4500
412.68	162.4500
413.04	159.0000
413.40	146.3500
413.75	156.8000
414.11	163.5500
414.47	162.6000
414.83	170.3500
415.19	167.3500
415.54	159.7000
415.90	167.8000
416.26	167.9500
416.62	173.8000
416.97	164.8500
417.33	174.6000
417.69	175.1500
418.05	174.5000
418.40	167.8000
418.76	176.8000
419.12	185.1500
419.48	180.6500
419.83	191.5500
420.19	172.8000
420.55	176.9000
420.90	194.5500
421.26	185.9500
421.62	183.8000
421.98	194.8000
422.33	199.3000
422.69	202.8000
423.05	207.9000
423.40	188.9500
423.76	185.5500
424.12	202.5000
424.47	203.2000
424.83	203.6000
425.19	203.9000
425.54	199.4000
425.90	209.2500
426.26	218.2000
426.61	220.4500
426.97	194.1500
427.33	216.3000
427.68	217.4500
428.04	226.7000
428.40	238.7000
428.75	243.7500
429.11	224.5000
429.47	244.8000
429.82	242.1000
430.18	243.9500
430.53	235.5500
430.89	235.9500
431.25	243.4000
431.60	249.0500
431.96	246.3000
432.31	241.7000
432.67	256.3000
433.03	261.7000
433.38	253.5000
433.74	261.3000
434.09	258.5000
434.45	249.4000
434.81	249.5500
435.16	266.1500
435.52	252.4000
435.87	242.7000
436.23	249.5500
436.58	253.1500
436.94	270.0500
437.30	268.5500
437.65	283.5000
438.01	272.5500
438.36	280.5500
438.72	279.7000
439.07	271.7500
439.43	276.1000
439.78	294.9000
440.14	305.9500
440.49	282.7500
440.85	282.7500
441.20	297.9500
441.56	290.9500
441.91	317.2500
442.27	298.3000
442.62	296.6500
442.98	305.7000
443.33	301.3000
443.69	304.0000
444.04	300.7500
444.40	291.5500
444.75	319.0500
445.11	318.1500
445.46	328.4000
445.82	326.4000
446.17	308.4000
446.53	328.7000
446.88	358.7000
447.23	307.6000
447.59	310.9500
447.94	306.8500
448.30	333.7000
448.65	325.9500
449.01	343.7000
449.36	341.0000
449.72	369.6000
450.07	380.3000
450.42	371.0500
450.78	354.1500
451.13	370.7500
451.49	355.8500
451.84	347.0000
452.19	352.8500
452.55	374.8000
452.90	373.8000
453.26	395.5000
453.61	410.8000
453.96	354.3500
454.32	392.2000
454.67	394.8000
455.02	370.6500
455.38	384.2500
455.73	383.4000
456.09	412.6000
456.44	412.3000
456.79	408.1500
457.15	409.8500
457.50	389.3000
457.85	407.3000
458.21	400.0500
458.56	421.6500
458.91	413.5000
459.27	393.8000
459.62	406.4500
459.97	411.3500
460.32	424.4000
460.68	426.1500
461.03	425.7000
461.38	437.4500
461.74	476.9000
462.09	460.6000
462.44	441.8000
462.80	432.1000
463.15	441.0000
463.50	442.8000
463.85	475.3000
464.21	456.2500
464.56	480.6500
464.91	454.5500
465.26	468.5500
465.62	465.0500
465.97	498.3000
466.32	496.4500
466.67	497.3000
467.03	501.3000
467.38	509.6500
467.73	519.3500
468.08	528.8000
468.44	532.5000
468.79	534.1500
469.14	505.8500
469.49	534.1500
469.85	552.1000
470.20	598.3000
470.55	596.0000
470.90	601.6000
471.25	576.0000
471.61	595.6000
471.96	601.5500
472.31	614.4500
472.66	617.9000
473.01	637.7000
473.36	651.7000
473.72	642.5500
474.07	669.4000
474.42	674.0000
474.77	674.8000
475.12	692.3000
475.47	714.7000
475.83	721.5000
476.18	717.3000
476.53	716.1500
476.88	750.9000
477.23	756.3500
477.58	751.2500
477.93	768.4000
478.28	762.7500
478.64	782.0500
478.99	800.9000
479.34	812.6000
479.69	829.2500
480.04	849.4000
480.39	853.4500
480.74	839.5500
481.09	889.2000
481.44	892.2000
481.79	888.5000
482.15	896.2500
482.50	915.8500
482.85	918.0000
483.20	945.7500
483.55	944.1000
483.90	961.2500
484.25	960.6000
484.60	961.0000
484.95	982.6500
485.30	990.9000
485.65	1007.0500
486.00	1018.8000
486.35	1006.2000
486.70	1018.3500
487.05	1051.4500
487.40	1050.7500
487.75	1064.5500
488.10	1071.9500
488.45	1065.5000
488.80	1077.4500
489.15	1105.5000
489.50	1102.2500
489.85	1112.8500
490.20	1113.7500
490.55	1130.2000
490.90	1134.9500
491.25	1146.0500
491.60	1141.9500
491.95	1142.9000
492.30	1158.5500
492.65	1172.2000
493.00	1173.7500
493.35	1174.4000
493.70	1189.8000
494.05	1201.9500
494.40	1220.7000
494.75	1218.1500
495.10	1218.1000
495.45	1217.8500
495.80	1229.7500
496.15	1242.1000
496.50	1234.3000
496.84	1242.5500
497.19	1245.9500
497.54	1262.5500
497.89	1264.8000
498.24	1268.8000
498.59	1283.7000
498.94	1275.5500
499.29	1286.0000
499.64	1287.0000
499.99	1301.2000
500.33	1312.8000
500.68	1309.9500
501.03	1317.4000
501.38	1325.9500
501.73	1341.1000
502.08	1334.0000
502.43	1347.8500
502.77	1352.5500
503.12	1370.2500
503.47	1367.8000
503.82	1380.4500
504.17	1388.0000
504.52	1397.1500
504.86	1405.7500
505.21	1424.3500
505.56	1419.6500
505.91	1425.7000
506.26	1424.4500
506.61	1445.7000
506.95	1449.0500
507.30	1455.6500
507.65	1472.9500
508.00	1471.6500
508.35	1476.5500
508.69	1478.8500
509.04	1500.6000
509.39	1495.3500
509.74	1501.3500
510.08	1514.6000
510.43	1528.6500
510.78	1531.6000
511.13	1536.6500
511.47	1548.1000
511.82	1560.7500
512.17	1557.2000
512.52	1578.4500
512.86	1585.3000
513.21	1597.7000
513.56	1605.9500
513.91	1624.0000
514.25	1621.8000
514.60	1634.6000
514.95	1635.5000
515.30	1646.5500
515.64	1649.5500
515.99	1669.6000
516.34	1677.0500
516.68	1690.5000
517.03	1696.4500
517.38	1695.6000
517.72	1727.3000
518.07	1721.0500
518.42	1729.1000
518.76	1742.1500
519.11	1750.7500
519.46	1766.2500
519.80	1759.2000
520.15	1767.3500
520.50	1785.2000
520.84	1787.0000
521.19	1795.2000
521.54	1809.5000
521.88	1808.1000
522.23	1824.7500
522.58	1817.5500
522.92	1829.7500
523.27	1839.4500
523.61	1844.4500
523.96	1845.4000
524.31	1873.5000
524.65	1882.0000
525.00	1876.1500
525.34	1861.0500
525.69	1868.2000
526.04	1894.8500
526.38	1899.4500
526.73	1898.6000
527.07	1917.7500
527.42	1911.1000
527.76	1928.5500
528.11	1937.8500
528.46	1933.3000
528.80	1930.5000
529.15	1919.1000
529.49	1923.2500
529.84	1941.5500
530.18	1943.4500
530.53	1969.3000
530.87	1961.9500
531.22	1962.6000
531.56	1966.7500
531.91	1967.8000
532.25	1967.8500
532.60	1966.1500
532.94	1981.5500
533.29	1978.0000
533.63	1978.5500
533.98	1975.1500
534.32	1989.9500
534.67	2010.8500
535.01	2016.1500
535.36	2003.7500
535.70	2028.4000
536.05	2026.2000
536.39	2043.8000
536.74	2020.6500
537.08	2012.9000
537.43	2010.3500
537.77	2034.9500
538.12	2049.7000
538.46	2051.6001
538.80	2067.8999
539.15	2048.7000
539.49	2057.0500
539.84	2080.0000
540.18	2077.8999
540.53	2079.8999
540.87	2076.1499
541.21	2096.0000
541.56	2096.3000
541.90	2113.6001
542.25	2099.6001
542.59	2099.3999
542.93	2123.3000
543.28	2106.3999
543.62	2117.8501
543.97	2127.5000
544.31	2132.7000
544.65	2133.4500
545.00	2146.6001
545.34	2151.5000
545.68	2149.5500
546.03	2148.7500
546.37	2173.7000
546.71	2173.2500
547.06	2181.3000
547.40	2179.3501
547.74	2207.0500
548.09	2192.2500
548.43	2196.3000
548.77	2205.3999
549.12	2210.9500
549.46	2205.3999
549.80	2223.4500
550.15	2238.8999
550.49	2239.6001
550.83	2237.7500
551.17	2255.7000
551.52	2249.6499
551.86	2249.6001
552.20	2268.0500
552.55	2277.8999
552.89	2283.3000
553.23	2291.4500
553.57	2299.6499
553.92	2298.0500
554.26	2315.2500
554.60	2299.0500
554.94	2311.1499
555.29	2324.1001
555.63	2328.2000
555.97	2353.2500
556.31	2347.8501
556.66	2359.4500
557.00	2347.1499
557.34	2365.8000
557.68	2381.0000
558.02	2374.8000
558.37	2384.6499
558.71	2386.6499
559.05	2392.0000
559.39	2400.2500
559.73	2414.7500
560.08	2408.6001
560.42	2420.9500
560.76	2427.3000
561.10	2430.3501
561.44	2424.6499
561.78	2444.5500
562.13	2451.6001
562.47	2436.5500
562.81	2463.8501
563.15	2464.7500
563.49	2461.8501
563.83	2486.9500
564.17	2481.3999
564.52	2479.7500
564.86	2488.8000
565.20	2493.6001
565.54	2490.7500
565.88	2485.8000
566.22	2506.8999
566.56	2490.3501
566.90	2513.3000
567.24	2523.6499
567.59	2509.3999
567.93	2520.0000
568.27	2530.7000
568.61	2545.8501
568.95	2527.8999
569.29	2531.8999
569.63	2557.7500
569.97	2547.6001
570.31	2516.7000
570.65	2534.3501
570.99	2545.0000
571.33	2559.8501
571.67	2543.7500
572.01	2550.5000
572.35	2560.6499
572.69	2575.3501
573.03	2582.0500
573.37	2570.3000
573.71	2562.6499
574.05	2552.1499
574.39	2561.2500
574.73	2584.1499
575.07	2563.5000
575.41	2565.1499
575.75	2581.8999
576.09	2599.1499
576.43	2588.7000
576.77	2586.7500
577.11	2576.2000
577.45	2585.3501
577.79	2578.2000
578.13	2596.8000
578.47	2564.7000
578.81	2573.3501
579.15	2584.6499
579.49	2614.3501
579.83	2604.1001
580.17	2617.1001
580.51	2606.5000
580.85	2607.5500
581.19	2606.3999
581.53	2593.3000
581.87	2598.7500
582.20	2606.3501
582.54	2610.8501
582.88	2606.7000
583.22	2594.7500
583.56	2583.7000
583.90	2613.2500
584.24	2611.4500
584.58	2603.1001
584.92	2625.0500
585.25	2620.6499
585.59	2618.0000
585.93	2625.5000
586.27	2641.1499
586.61	2607.8999
586.95	2632.1001
587.29	2647.8000
587.62	2616.6499
587.96	2634.2500
588.30	2637.7500
588.64	2631.3501
588.98	2633.5500
589.31	2642.8501
589.65	2635.9500
589.99	2618.3501
590.33	2642.6499
590.67	2648.1499
591.01	2645.0000
591.34	2656.3999
591.68	2657.7000
592.02	2663.5500
592.36	2653.7000
592.69	2653.7500
593.03	2665.3501
593.37	2669.6499
593.71	2669.3000
594.04	2662.9500
594.38	2664.2500
594.72	2685.3501
595.06	2675.5500
595.39	2669.4500
595.73	2680.8000
596.07	2701.2500
596.41	2693.7500
596.74	2690.3501
597.08	2695.2000
597.42	2698.8000
597.76	2685.8501
598.09	2706.0000
598.43	2687.2500
598.77	2711.7500
599.10	2720.1499
599.44	2713.8000
599.78	2708.9500
600.11	2723.8999
600.45	2727.5000
600.79	2723.5000
601.12	2718.0000
601.46	2733.3501
601.80	2742.3501
602.13	2725.6001
602.47	2744.7500
602.81	2727.2500
603.14	2734.8000
603.48	2755.0500
603.82	2744.3000
604.15	2745.2500
604.49	2748.7000
604.82	2747.8501
605.16	2758.3999
605.50	2741.7000
605.83	2768.5500
606.17	2771.6499
606.50	2775.3501
606.84	2754.8000
607.18	2766.0000
607.51	2763.8501
607.85	2771.0500
608.18	2776.4500
608.52	2773.9500
608.86	2776.2000
609.19	2794.3000
609.53	2764.2500
609.86	2798.7500
610.20	2785.5000
610.53	2776.5500
610.87	2769.3501
611.20	2806.5500
611.54	2772.8000
611.87	2784.8000
612.21	2793.6499
612.54	2783.5500
612.88	2784.3000
613.21	2793.2000
613.55	2791.5000
613.88	2771.7500
614.22	2786.3000
614.55	2770.6001
614.89	2768.2500
615.22	2776.7500
615.56	2769.7500
615.89	2787.6499
616.23	2794.2000
616.56	2756.2000
616.90	2786.1001
617.23	2766.7500
617.57	2794.4500
617.90	2781.7000
618.24	2787.2000
618.57	2789.1001
618.90	2775.1001
619.24	2772.8501
619.57	2776.1499
619.91	2797.8999
620.24	2748.8000
620.58	2777.3501
620.91	2772.5000
621.24	2779.3000
621.58	2785.0000
621.91	2765.7500
622.25	2776.1499
622.58	2769.1001
622.91	2793.1001
623.25	2758.6499
623.58	2776.0000
623.91	2763.8000
624.25	2773.8501
624.58	2777.7000
624.92	2766.4500
625.25	2771.5000
625.58	2748.8999
625.92	2778.0000
626.25	2766.6499
626.58	2778.8000
626.92	2762.8000
627.25	2775.7500
627.58	2758.0000
627.91	2771.4500
628.25	2768.1499
628.58	2771.5500
628.91	2753.2500
629.25	2770.0000
629.58	2751.3999
629.91	2758.1001
630.25	2769.3000
630.58	2753.8000
630.91	2753.9500
631.24	2758.9500
631.58	2766.8000
631.91	2768.8501
632.24	2732.2500
632.57	2747.2000
632.91	2750.6001
633.24	2740.0500
633.57	2747.0500
633.90	2742.1499
634.24	2744.9500
634.57	2747.9500
634.90	2749.6499
635.23	2709.8501
635.56	2717.8501
635.90	2728.1499
636.23	2726.5000
636.56	2728.1499
636.89	2729.8000
637.22	2726.0000
637.56	2725.3501
637.89	2705.6499
638.22	2715.6001
638.55	2718.1001
638.88	2685.8501
639.21	2705.7000
639.55	2695.3000
639.88	2702.3000
640.21	2703.5500
640.54	2700.8999
640.87	2687.6001
641.20	2692.1001
641.53	2711.3999
641.87	2686.2500
642.20	2692.8000
642.53	2681.3000
642.86	2692.7000
643.19	2685.0500
643.52	2683.0000
643.85	2686.9500
644.18	2680.6499
644.51	2667.0500
644.84	2676.4500
645.18	2666.5000
645.51	2653.3000
645.84	2667.1001
646.17	2662.5000
646.50	2676.7000
646.83	2679.3501
647.16	2652.0000
647.49	2665.2000
647.82	2659.0000
648.15	2656.5000
648.48	2668.8501
648.81	2664.8999
649.14	2656.9500
649.47	2659.8999
649.80	2647.5500
650.13	2637.5000
650.46	2652.2000
650.79	2647.1499
651.12	2661.6001
651.45	2652.7000
651.78	2629.5000
652.11	2643.7000
652.44	2636.6001
652.77	2645.8501
653.10	2651.6499
653.43	2650.6499
653.76	2649.3999
654.09	2622.6499
654.42	2640.5500
654.75	2641.0500
655.08	2620.0000
655.41	2626.0000
655.74	2596.8999
656.07	2632.3501
656.39	2621.8999
656.72	2626.8501
657.05	2619.7500
657.38	2637.6499
657.71	2634.8501
658.04	2621.2000
658.37	2616.7000
658.70	2624.1499
659.03	2609.7500
659.36	2616.1001
659.68	2618.5000
660.01	2614.8501
660.34	2617.8000
660.67	2614.1001
661.00	2624.3999
661.33	2598.2500
661.66	2590.2000
661.98	2607.3000
662.31	2600.7000
662.64	2598.8501
662.97	2597.8501
663.30	2583.1001
663.63	2591.6001
663.95	2575.3999
664.28	2580.9500
664.61	2577.8999
664.94	2578.7500
665.27	2588.1001
665.59	2578.3501
665.92	2582.5500
666.25	2562.8501
666.58	2550.8999
666.91	2591.2500
667.23	2562.1499
667.56	2557.5000
667.89	2545.8000
668.22	2557.2500
668.54	2557.5000
668.87	2564.2000
669.20	2548.5500
669.53	2553.5500
669.85	2554.6499
670.18	2538.8999
670.51	2532.1499
670.83	2523.6499
671.16	2538.9500
671.49	2544.6499
671.82	2536.2500
672.14	2516.4500
672.47	2522.8501
672.80	2511.0500
673.12	2521.1499
673.45	2527.6001
673.78	2488.6499
674.10	2516.0500
674.43	2494.8000
674.76	2488.0000
675.08	2498.0000
675.41	2474.8999
675.74	2482.6001
676.06	2485.5500
676.39	2463.3000
676.72	2472.3999
677.04	2474.3501
677.37	2466.8501
677.69	2453.6001
678.02	2448.3999
678.35	2446.0500
678.67	2418.8501
679.00	2448.8000
679.32	2437.6001
679.65	2425.9500
679.98	2435.8501
680.30	2419.8000
680.63	2414.0000
680.95	2401.4500
681.28	2416.6499
681.60	2391.0000
681.93	2395.7500
682.26	2387.1001
682.58	2380.6499
682.91	2385.2000
683.23	2371.7000
683.56	2358.8501
683.88	2372.3000
684.21	2351.7000
684.53	2366.0500
684.86	2363.1001
685.18	2350.1499
685.51	2357.0000
685.83	2341.1499
686.16	2316.3999
686.48	2318.3999
686.81	2330.9500
687.13	2325.0500
687.46	2315.0000
687.78	2324.2000
688.11	2298.8999
688.43	2294.8501
688.76	2288.7000
689.08	2292.0500
689.41	2279.3501
689.73	2270.3501
690.05	2265.0500
690.38	2267.1499
690.70	2268.8999
691.03	2244.7000
691.35	2245.7500
691.68	2219.2500
692.00	2228.9500
692.32	2251.1499
692.65	2232.5500
692.97	2229.1001
693.29	2228.8501
693.62	2208.7000
693.94	2218.0500
694.27	2203.8501
694.59	2166.4500
694.91	2192.0500
695.24	2199.1499
695.56	2172.5000
695.88	2166.1001
696.21	2145.2000
696.53	2132.6001
696.85	2149.6499
697.18	2159.4500
697.50	2144.6499
697.82	2152.5500
698.15	2139.3999
698.47	2133.8501
698.79	2132.8999
699.12	2140.0000
699.44	2100.7500
699.76	2097.8501
700.09	2106.6499
700.41	2098.1499
700.73	2088.3999
701.05	2100.1499
701.38	2082.0500
701.70	2086.9500
702.02	2085.3501
702.34	2074.7500
702.67	2079.2000
702.99	2073.2500
703.31	2056.1001
703.63	2063.4500
703.96	2053.4500
704.28	2034.6000
704.60	2034.2000
704.92	2044.4000
705.25	2031.3500
705.57	2029.4500
705.89	2020.5500
706.21	2015.3500
706.53	2014.3000
706.86	2012.9000
707.18	2009.2500
707.50	2019.3000
707.82	1994.0000
708.14	2006.7000
708.46	2016.3500
708.79	1982.3000
709.11	2000.6000
709.43	1982.0000
709.75	1975.0000
710.07	1965.9500
710.39	1972.8000
710.71	1959.5000
711.04	1954.9000
711.36	1949.7500
711.68	1951.1500
712.00	1947.9500
712.32	1947.6000
712.64	1929.9500
712.96	1928.5500
713.28	1914.0500
713.60	1932.0000
713.92	1906.3500
714.24	1919.1500
714.57	1914.8500
714.89	1907.9000
715.21	1899.6500
715.53	1888.3000
715.85	1892.0500
716.17	1892.3500
716.49	1889.1000
716.81	1879.8000
717.13	1887.2500
717.45	1865.8000
717.77	1864.2500
718.09	1848.8500
718.41	1858.4500
718.73	1847.6500
719.05	1842.2000
719.37	1812.8000
719.69	1833.7500
720.01	1833.1000
720.33	1814.4500
720.65	1810.1000
720.97	1809.5500
721.29	1794.4500
721.61	1808.8000
721.93	1800.1500
722.25	1784.9000
722.57	1783.7500
722.89	1775.6000
723.21	1777.1000
723.52	1768.1000
723.84	1754.8500
724.16	1767.2000
724.48	1761.4500
724.80	1763.8500
725.12	1751.7500
725.44	1748.5500
725.76	1743.1500
726.08	1749.2500
726.40	1726.8500
726.72	1743.5000
727.03	1744.0500
727.35	1737.1500
727.67	1725.3500
727.99	1726.6500
728.31	1723.2000
728.63	1717.2500
728.95	1719.5000
729.26	1706.5500
729.58	1702.4000
729.90	1705.8000
730.22	1676.3000
730.54	1680.8500
730.86	1690.8500
731.17	1693.4500
731.49	1675.0000
731.81	1689.1500
732.13	1683.9000
732.45	1661.1500
732.76	1658.8000
733.08	1665.8000
733.40	1659.2500
733.72	1650.3500
734.03	1644.6500
734.35	1646.9000
734.67	1656.4000
734.99	1634.2000
735.30	1642.4000
735.62	1635.3000
735.94	1634.2500
736.26	1620.3500
736.57	1611.5500
736.89	1622.4500
737.21	1600.6500
737.53	1596.7000
737.84	1597.0000
738.16	1578.1500
738.48	1579.3500
738.79	1588.8500
739.11	1573.4000
739.43	1561.1000
739.74	1560.8000
740.06	1548.5000
740.38	1547.6000
740.69	1536.6500
741.01	1530.4500
741.33	1519.1500
741.64	1517.2500
741.96	1510.8500
742.28	1513.1000
742.59	1487.6000
742.91	1489.3000
743.23	1479.8500
743.54	1492.6500
743.86	1473.6500
744.17	1469.5500
744.49	1471.8500
744.81	1464.1500
745.12	1452.5000
745.44	1439.6500
745.75	1446.9000
746.07	1430.7500
746.38	1436.3000
746.70	1428.3000
747.02	1434.9500
747.33	1415.5500
747.65	1415.3500
747.96	1412.9000
748.28	1408.0000
748.59	1403.9000
748.91	1394.2500
749.22	1400.1500
749.54	1389.7500
749.85	1396.5500
750.17	1387.8000
750.48	1376.5000
750.80	1375.6500
751.11	1376.9000
751.43	1372.4000
751.74	1371.9500
752.06	1368.2000
752.37	1357.0500
752.69	1367.2000
753.00	1354.2500
753.32	1358.4500
753.63	1356.0000
753.95	1353.3500
754.26	1341.9500
754.58	1346.6000
754.89	1349.2000
755.20	1345.1500
755.52	1342.1000
755.83	1336.9500
756.15	1335.2500
756.46	1327.8000
756.78	1321.6500
757.09	1322.2500
757.40	1319.2000
757.72	1313.4500
758.03	1313.1500
758.34	1310.5500
758.66	1317.1000
758.97	1309.0000
759.29	1305.1000
759.60	1304.2000
759.91	1293.3000
760.23	1294.5000
760.54	1297.4500
760.85	1287.9500
761.17	1283.7000
761.48	1282.7000
761.79	1267.6500
762.11	1268.3000
762.42	1265.4000
762.73	1273.1000
763.05	1267.6500
763.36	1275.3000
763.67	1267.5000
763.98	1247.9500
764.30	1233.8000
764.61	1246.7000
764.92	1244.3000
765.23	1235.6500
765.55	1230.3000
765.86	1230.4000
766.17	1232.0000
766.48	1222.8500
766.80	1209.1000
767.11	1222.9000
767.42	1195.3500
767.73	1190.8000
768.05	1200.7000
768.36	1202.5500
768.67	1211.8000
768.98	1193.9000
769.29	1205.2500
769.61	1189.6500
769.92	1167.4500
770.23	1174.4500
770.54	1151.6500
770.85	1159.7000
771.17	1163.7000
771.48	1161.5000
771.79	1159.0000
772.10	1148.0500
772.41	1146.1500
772.72	1132.4000
773.03	1122.9500
773.35	1122.3500
773.66	1110.1000
773.97	1111.1000
774.28	1105.2000
774.59	1099.7500
774.90	1103.5500
775.21	1106.3000
775.52	1102.1000
775.83	1095.3000
776.15	1084.3500
776.46	1074.2000
776.77	1066.2500
777.08	1072.8500
777.39	1074.5500
777.70	1057.9000
778.01	1059.3000
778.32	1057.9500
778.63	1058.0000
778.94	1054.8000
779.25	1042.7500
779.56	1034.7500
779.87	1024.8500
780.18	1017.3500
780.49	1017.2000
780.80	1017.1000
781.11	1009.6000
781.42	1002.0000
781.73	1002.1000
782.04	980.8000
782.35	979.6000
782.66	975.7500
782.97	978.5500
783.28	982.3500
783.59	971.9000
783.90	969.1500
784.21	964.8000
784.52	953.0500
784.83	950.7500
785.14	942.9000
785.45	936.2500
785.76	928.3500
786.06	933.1000
786.37	938.6000
786.68	925.9500
786.99	919.9500
787.30	918.2500
787.61	915.4500
787.92	909.5000
788.23	896.7500
788.54	907.7500
788.84	899.4500
789.15	899.8500
789.46	894.1000
789.77	882.6500
790.08	881.1000
790.39	870.8000
790.70	880.9500
791.00	873.3500
791.31	857.4500
791.62	863.7000
791.93	856.7000
792.24	851.8000
792.54	849.8000
792.85	834.8500
793.16	840.3500
793.47	830.9000
793.78	830.0500
794.08	828.4500
794.39	816.2000
794.70	822.3000
795.01	811.4000
795.31	812.3500
795.62	800.5000
795.93	805.6500
796.24	807.7500
796.54	795.6000
796.85	801.5000
797.16	784.0500
797.47	779.2000
797.77	781.2500
798.08	773.5000
798.39	772.9000
798.69	774.1000
799.00	766.8500
799.31	759.7000
799.62	756.0000
799.92	753.1500
800.23	751.7500
800.54	748.4500
800.84	743.6500
801.15	735.3000
801.46	739.2500
801.76	737.3500
802.07	723.4000
802.37	718.9000
802.68	718.8000
802.99	723.0500
803.29	712.0000
803.60	702.4000
803.91	696.6000
804.21	699.2000
804.52	702.1000
804.82	696.0500
805.13	701.0500
805.44	693.2500
805.74	688.9000
806.05	689.8000
806.35	682.0500
806.66	674.5500
806.96	678.9500
807.27	669.9500
807.57	667.8500
807.88	666.6000
808.19	659.6500
808.49	661.2000
808.80	654.4000
809.10	652.2500
809.41	653.5500
809.71	641.1500
810.02	641.5000
810.32	637.5000
810.63	642.4500
810.93	642.4000
811.24	631.1000
811.54	638.4500
811.85	630.5500
812.15	625.6500
812.45	622.1500
812.76	617.6000
813.06	610.7000
813.37	612.3000
813.67	615.4000
813.98	606.2000
814.28	597.0500
814.58	603.2500
814.89	595.9000
815.19	595.4500
815.50	589.3000
815.80	587.1000
816.11	581.6000
816.41	587.6500
816.71	582.1000
817.02	582.4000
817.32	577.8000
817.62	572.3500
817.93	574.4000
818.23	568.6500
818.53	566.5500
818.84	569.0500
819.14	557.1500
819.44	561.5000
819.75	554.6000
820.05	552.9500
820.35	548.0500
820.66	541.8000
820.96	548.1500
821.26	543.3500
821.57	542.2000
821.87	536.5500
822.17	538.1000
822.48	535.9500
822.78	532.9000
823.08	527.6500
823.38	530.0000
823.69	522.8500
823.99	525.7000
824.29	521.6500
824.59	513.7000
824.90	522.0500
825.20	515.4500
825.50	509.0500
825.80	508.2500
826.10	509.6500
826.41	505.4500
826.71	504.7000
827.01	502.7500
827.31	502.8500
827.61	500.2000
827.92	500.8500
828.22	497.2500
828.52	491.5500
828.82	491.8500
829.12	486.2000
829.42	486.5000
829.73	484.6500
830.03	482.4500
830.33	482.0500
830.63	475.9500
830.93	474.7000
831.23	471.8500
831.53	472.9000
831.83	469.4500
832.14	463.6500
832.44	464.0500
832.74	457.4500
833.04	462.4500
833.34	463.6000
833.64	455.9500
833.94	452.8000
834.24	456.1500
834.54	456.8500
834.84	451.9500
835.14	449.3000
835.44	445.7500
835.74	446.5000
836.04	442.9000
836.34	444.8500
836.64	441.8000
836.95	443.0500
837.25	437.0500
837.55	435.1500
837.85	433.5000
838.15	436.5000
838.45	431.9500
838.74	428.3500
839.04	421.2000
839.34	424.8500
839.64	416.5000
839.94	416.8000
840.24	417.3000
840.54	421.2500
840.84	418.5000
841.14	412.7500
841.44	414.2500
841.74	413.1000
842.04	408.5500
842.34	409.8000
842.64	404.9500
842.94	406.6000
843.24	403.0000
843.53	401.6000
843.83	400.6000
844.13	399.6000
844.43	395.3000
844.73	396.8000
845.03	392.2000
845.33	391.5000
845.63	391.6000
845.92	388.0000
846.22	387.5000
846.52	385.3500
846.82	387.6000
847.12	378.5000
847.42	379.5000
847.71	375.9500
848.01	379.4000
848.31	375.4500
848.61	374.0500
848.91	371.1000
849.20	372.5500
849.50	371.4000
849.80	369.8000
850.10	367.2000
850.39	365.4000
850.69	361.8500
850.99	363.9000
851.29	360.5000
851.59	359.4000
851.88	357.7500
852.18	357.9500
852.48	356.3500
852.77	353.1000
853.07	352.6000
853.37	347.8500
853.67	350.5000
853.96	346.3000
854.26	344.8500
854.56	343.2000
854.85	343.8500
855.15	341.3500
855.45	341.8500
855.74	338.0000
856.04	336.6500
856.34	337.3500
856.63	332.9500
856.93	329.4000
857.23	329.8000
857.52	327.3000
857.82	326.8000
858.11	327.6000
858.41	324.4000
858.71	323.6000
859.00	322.1000
859.30	321.4000
859.59	319.7000
859.89	316.8500
860.19	316.6000
860.48	315.6000
860.78	314.3500
861.07	314.3000
861.37	312.2500
861.66	313.1000
861.96	309.6500
862.26	308.0500
862.55	306.1500
862.85	303.9500
863.14	302.8000
863.44	301.4000
863.73	299.0000
864.03	296.5000
864.32	299.3500
864.62	296.8000
864.91	295.9000
865.21	291.6500
865.50	291.7000
865.80	291.0000
866.09	290.9000
866.39	288.9000
866.68	288.6500
866.97	282.7000
867.27	284.2000
867.56	282.8000
867.86	278.9000
868.15	278.5500
868.45	275.5000
868.74	273.0000
869.03	274.4000
869.33	276.2000
869.62	272.9500
869.92	271.5500
870.21	265.6500
870.50	265.0500
870.80	265.2000
871.09	263.0000
871.39	260.3500
871.68	262.3500
871.97	258.8500
872.27	258.5500
872.56	257.0500
872.85	256.8000
873.15	251.8500
873.44	249.5500
873.73	250.7500
874.03	248.9000
874.32	248.1000
874.61	244.0500
874.90	244.1500
875.20	243.3000
875.49	239.4500
875.78	241.4000
>>>>>End Spectral Data<<<<<
